时间/s,PPG_G,PPG_R,PPG_IR,U1h,U1l,U2h,U2l,U3h,U3l,U4h,U4l,ACCX,ACCY,ACCZ,GX,GY,GZ
0,113,197,130,0,0,0,0,0,0,0,0,0,0,0,0,0,0
0.003383,0,0,0,0,0,0,0,0,0,0,0,0,0,0,0,0,0
0.010079,114,195,131,0,0,0,0,0,0,0,0,0,0,0,0,0,0
0.028861,0,0,0,0,0,0,0,0,0,0,0,0,0,0,0,0,0
0.029859,113,198,131,0,0,0,0,0,0,0,0,0,0,0,0,0,0
0.050286,0,0,0,0,0,0,0,0,0,0,0,0,0,0,0,0,0
0.050286,113,197,131,0,0,0,0,0,0,0,0,0,0,0,0,0,0
0.07052,0,0,0,0,0,0,0,0,0,0,0,0,0,0,0,0,0
0.07153,114,198,132,0,0,0,0,0,0,0,0,0,0,0,0,0,0
0.089357,0,0,0,0,0,0,0,0,0,0,0,0,0,0,0,0,0
0.090792,112,199,130,0,0,0,0,0,0,0,0,0,0,0,0,0,0
0.108991,0,0,0,0,0,0,0,0,0,0,0,0,0,0,0,0,0
0.110003,114,198,130,0,0,0,0,0,0,0,0,0,0,0,0,0,0
0.129939,0,0,0,0,0,0,0,0,0,0,0,0,0,0,0,0,0
0.131331,112,199,132,0,0,0,0,0,0,0,0,0,0,0,0,0,0
0.149264,0,0,0,0,0,0,0,0,0,0,0,0,0,0,0,0,0
0.150696,113,198,132,0,0,0,0,0,0,0,0,0,0,0,0,0,0
0.16733,0,0,0,0,0,0,0,0,0,0,0,0,0,0,0,0,0
0.169858,114,198,133,0,0,0,0,0,0,0,0,0,0,0,0,0,0
0.189535,0,0,0,0,0,0,0,0,0,0,0,0,0,0,0,0,0
0.190673,114,199,131,0,0,0,0,0,0,0,0,0,0,0,0,0,0
0.207527,0,0,0,0,0,0,0,0,0,0,0,0,0,0,0,0,0
0.209753,112,199,133,0,0,0,0,0,0,0,0,0,0,0,0,0,0
0.230429,0,0,0,0,0,0,0,0,0,0,0,0,0,0,0,0,0
0.231528,114,197,129,0,0,0,0,0,0,0,0,0,0,0,0,0,0
0.238492,0,0,0,0,0,0,0,0,0,0,0,0,0,0,0,0,0
0.258585,115,198,134,0,0,0,0,0,0,0,0,0,0,0,0,0,0
0.259585,0,0,0,0,0,0,0,0,0,0,0,0,0,0,0,0,0
0.278203,117,198,130,0,0,0,0,0,0,0,0,0,0,0,0,0,0
0.279267,0,0,0,0,0,0,0,0,0,0,0,0,0,0,0,0,0
0.297629,113,198,131,0,0,0,0,0,0,0,0,0,0,0,0,0,0
0.299636,0,0,0,0,0,0,0,0,0,0,0,0,0,0,0,0,0
0.318104,113,198,132,0,0,0,0,0,0,0,0,0,0,0,0,0,0
0.320169,0,0,0,0,0,0,0,0,0,0,0,0,0,0,0,0,0
0.338781,114,198,133,0,0,0,0,0,0,0,0,0,0,0,0,0,0
0.340298,0,0,0,0,0,0,0,0,0,0,0,0,0,0,0,0,0
0.358784,112,200,133,0,0,0,0,0,0,0,0,0,0,0,0,0,0
0.360058,0,0,0,0,0,0,0,0,0,0,0,0,0,0,0,0,0
0.378527,113,197,132,0,0,0,0,0,0,0,0,0,0,0,0,0,0
0.379663,0,0,0,0,0,0,0,0,0,0,0,0,0,0,0,0,0
0.399542,115,196,131,0,0,0,0,0,0,0,0,0,0,0,0,0,0
0.400736,0,0,0,0,0,0,0,0,0,0,0,0,0,0,0,0,0
0.418675,116,196,134,0,0,0,0,0,0,0,0,0,0,0,0,0,0
0.419713,0,0,0,0,0,0,0,0,0,0,0,0,0,0,0,0,0
0.437197,113,198,132,0,0,0,0,0,0,0,0,0,0,0,0,0,0
0.439747,0,0,0,0,0,0,0,0,0,0,0,0,0,0,0,0,0
0.458778,115,198,131,0,0,0,0,0,0,0,0,0,0,0,0,0,0
0.459778,0,0,0,0,0,0,0,0,0,0,0,0,0,0,0,0,0
0.468224,112,199,133,0,0,0,0,0,0,0,0,0,0,0,0,0,0
0.470423,0,0,0,0,0,0,0,0,0,0,0,0,0,0,0,0,0
0.489616,113,200,134,0,0,0,0,0,0,0,0,0,0,0,0,0,0
0.508747,0,0,0,0,0,0,0,0,0,0,0,0,0,0,0,0,0
0.50976,114,199,133,0,0,0,0,0,0,0,0,0,0,0,0,0,0
0.528457,0,0,0,0,0,0,0,0,0,0,0,0,0,0,0,0,0
0.530239,115,198,132,0,0,0,0,0,0,0,0,0,0,0,0,0,0
0.548485,0,0,0,0,0,0,0,0,0,0,0,0,0,0,0,0,0
0.549485,113,199,131,0,0,0,0,0,0,0,0,0,0,0,0,0,0
0.568787,0,0,0,0,0,0,0,0,0,0,0,0,0,0,0,0,0
0.569802,114,198,130,0,0,0,0,0,0,0,0,0,0,0,0,0,0
0.588557,0,0,0,0,0,0,0,0,0,0,0,0,0,0,0,0,0
0.589574,112,196,130,0,0,0,0,0,0,0,0,0,0,0,0,0,0
0.608147,0,0,0,0,0,0,0,0,0,0,0,0,0,0,0,0,0
0.609178,114,198,131,0,0,0,0,0,0,0,0,0,0,0,0,0,0
0.629394,0,0,0,0,0,0,0,0,0,0,0,0,0,0,0,0,0
0.630516,113,200,131,0,0,0,0,0,0,0,0,0,0,0,0,0,0
0.648234,0,0,0,0,0,0,0,0,0,0,0,0,0,0,0,0,0
0.649693,115,199,131,0,0,0,0,0,0,0,0,0,0,0,0,0,0
0.669318,0,0,0,0,0,0,0,0,0,0,0,0,0,0,0,0,0
0.670362,113,198,128,0,0,0,0,0,0,0,0,0,0,0,0,0,0
0.688524,0,0,0,0,0,0,0,0,0,0,0,0,0,0,0,0,0
0.689743,112,197,131,0,0,0,0,0,0,0,0,0,0,0,0,0,0
0.709333,0,0,0,0,0,0,0,0,0,0,0,0,0,0,0,0,0
0.710458,113,200,129,0,0,0,0,0,0,0,0,0,0,0,0,0,0
0.718414,0,0,0,0,0,0,0,0,0,0,0,0,0,0,0,0,0
0.738426,115,198,133,0,0,0,0,0,0,0,0,0,0,0,0,0,0
0.740201,0,0,0,0,0,0,0,0,0,0,0,0,0,0,0,0,0
0.759197,116,199,132,0,0,0,0,0,0,0,0,0,0,0,0,0,0
0.760338,0,0,0,0,0,0,0,0,0,0,0,0,0,0,0,0,0
0.778543,113,200,134,0,0,0,0,0,0,0,0,0,0,0,0,0,0
0.779674,0,0,0,0,0,0,0,0,0,0,0,0,0,0,0,0,0
0.797519,114,203,135,0,0,0,0,0,0,0,0,0,0,0,0,0,0
0.800143,0,0,0,0,0,0,0,0,0,0,0,0,0,0,0,0,0
0.820402,114,206,140,0,0,0,0,0,0,0,0,0,0,0,0,0,0
0.821401,0,0,0,0,0,0,0,0,0,0,0,0,0,0,0,0,0
0.838138,113,212,146,0,0,0,0,0,0,0,0,0,0,0,0,0,0
0.839644,0,0,0,0,0,0,0,0,0,0,0,0,0,0,0,0,0
0.857855,115,219,152,0,0,0,0,0,0,0,0,0,0,0,0,0,0
0.860198,0,0,0,0,0,0,0,0,0,0,0,0,0,0,0,0,0
0.879881,120,228,166,0,0,0,0,0,0,0,0,0,0,0,0,0,0
0.880917,0,0,0,0,0,0,0,0,0,0,0,0,0,0,0,0,0
0.89988,122,241,178,0,0,0,0,0,0,0,0,0,0,0,0,0,0
0.901295,0,0,0,0,0,0,0,0,0,0,0,0,0,0,0,0,0
0.917996,125,243,189,0,0,0,0,0,0,0,0,0,0,0,0,0,0
0.919438,0,0,0,0,0,0,0,0,0,0,0,0,0,0,0,0,0
0.939991,123,243,196,0,0,0,0,0,0,0,0,0,0,0,0,0,0
0.941135,0,0,0,0,0,0,0,0,0,0,0,0,0,0,0,0,0
0.949178,126,246,213,0,0,0,0,0,0,0,0,0,0,0,0,0,0
0.968055,0,0,0,0,0,0,0,0,0,0,0,0,0,0,0,0,0
0.969275,132,269,237,0,0,0,0,0,0,0,0,0,0,0,0,0,0
0.989289,0,0,0,0,0,0,0,0,0,0,0,0,0,0,0,0,0
0.990427,142,318,286,0,0,0,0,0,0,0,0,0,0,0,0,0,0
1.009467,0,0,0,0,0,0,0,0,0,0,0,0,0,0,0,0,0
1.010705,161,413,374,0,0,0,0,0,0,0,0,0,0,0,0,0,0
1.028324,0,0,0,0,0,0,0,0,0,0,0,0,0,0,0,0,0
1.029469,191,557,504,0,0,0,0,0,0,0,0,0,0,0,0,0,0
1.04885,0,0,0,0,0,0,0,0,0,0,0,0,0,0,0,0,0
1.050362,209,642,578,0,0,0,0,0,0,0,0,0,0,0,0,0,0
1.06917,0,0,0,0,0,0,0,0,0,0,0,0,0,0,0,0,0
1.070245,217,675,604,0,0,0,0,0,0,0,0,0,0,0,0,0,0
1.088737,0,0,0,0,0,0,0,0,0,0,0,0,0,0,0,0,0
1.090202,249,840,749,0,0,0,0,0,0,0,0,0,0,0,0,0,0
1.109091,0,0,0,0,0,0,0,0,0,0,0,0,0,0,0,0,0
1.110137,389,1488,1320,0,0,0,0,0,0,0,0,0,0,0,0,0,0
1.128653,0,0,0,0,0,0,0,0,0,0,0,0,0,0,0,0,0
1.129963,756,3044,2648,0,0,0,0,0,0,0,0,0,0,0,0,0,0
1.148545,0,0,0,0,0,0,0,0,0,0,0,0,0,0,0,0,0
1.14955,1298,4933,4296,0,0,0,0,0,0,0,0,0,0,0,0,0,0
1.169632,0,0,0,0,0,0,0,0,0,0,0,0,0,0,0,0,0
1.171007,1577,5617,5053,0,0,0,0,0,0,0,0,0,0,0,0,0,0
1.189337,0,0,0,0,0,0,0,0,0,0,0,0,0,0,0,0,0
1.190528,1553,5294,4996,0,0,0,0,0,0,0,0,0,0,0,0,0,0
1.207577,0,0,0,0,0,0,0,0,0,0,0,0,0,0,0,0,0
1.210165,1765,5900,5745,0,0,0,0,0,0,0,0,0,0,0,0,0,0
1.228435,0,0,0,0,0,0,0,0,0,0,0,0,0,0,0,0,0
1.229443,2292,7520,7419,0,0,0,0,0,0,0,0,0,0,0,0,0,0
1.250317,0,0,0,0,0,0,0,0,0,0,0,0,0,0,0,0,0
1.251662,2985,9753,9458,0,0,0,0,0,0,0,0,0,0,0,0,0,0
1.267927,0,0,0,0,0,0,0,0,0,0,0,0,0,0,0,0,0
1.269013,3711,12346,11523,0,0,0,0,0,0,0,0,0,0,0,0,0,0
1.279923,0,0,0,0,0,0,0,0,0,0,0,0,0,0,0,0,0
1.298413,4805,17282,15374,0,0,0,0,0,0,0,0,0,0,0,0,0,0
1.29951,0,0,0,0,0,0,0,0,0,0,0,0,0,0,0,0,0
1.317739,5145,23628,21791,0,0,0,0,0,0,0,0,0,0,0,0,0,0
1.319061,0,0,0,0,0,0,0,0,0,0,0,0,0,0,0,0,0
1.33958,4690,25729,25311,0,0,0,0,0,0,0,0,0,0,0,0,0,0
1.341094,0,0,0,0,0,0,0,0,0,0,0,0,0,0,0,0,0
1.35824,4964,27954,29029,0,0,0,0,0,0,0,0,0,0,0,0,0,0
1.35952,0,0,0,0,0,0,0,0,0,0,0,0,0,0,0,0,0
1.378574,5504,30049,32571,0,0,0,0,0,0,0,0,0,0,0,0,0,0
1.379593,0,0,0,0,0,0,0,0,0,0,0,0,0,0,0,0,0
1.398613,5770,30878,33797,0,0,0,0,0,0,0,0,0,0,0,0,0,0
1.399884,0,0,0,0,0,0,0,0,0,0,0,0,0,0,0,0,0
1.41838,5929,31219,34440,0,0,0,0,0,0,0,0,0,0,0,0,0,0
1.419385,0,0,0,0,0,0,0,0,0,0,0,0,0,0,0,0,0
1.438669,6099,31481,35006,0,0,0,0,0,0,0,0,0,0,0,0,0,0
1.440299,0,0,0,0,0,0,0,0,0,0,0,0,0,0,0,0,0
1.458299,6252,31632,35414,0,0,0,0,0,0,0,0,0,0,0,0,0,0
1.459384,0,0,0,0,0,0,0,0,0,0,0,0,0,0,0,0,0
1.479562,6378,31733,35652,0,0,0,0,0,0,0,0,0,0,0,0,0,0
1.480691,0,0,0,0,0,0,0,0,0,0,0,0,0,0,0,0,0
1.497776,6487,31859,35852,0,0,0,0,0,0,0,0,0,0,0,0,0,0
1.500069,0,0,0,0,0,0,0,0,0,0,0,0,0,0,0,0,0
1.508454,6593,31999,36051,0,0,0,0,0,0,0,0,0,0,0,0,0,0
1.529242,0,0,0,0,0,0,0,0,0,0,0,0,0,0,0,0,0
1.531559,6685,32095,36201,0,0,0,0,0,0,0,0,0,0,0,0,0,0
1.547987,0,0,0,0,0,0,0,0,0,0,0,0,0,0,0,0,0
1.54912,6748,32144,36306,0,0,0,0,0,0,0,0,0,0,0,0,0,0
1.568286,0,0,0,0,0,0,0,0,0,0,0,0,0,0,0,0,0
1.569426,6797,32162,36369,0,0,0,0,0,0,0,0,0,0,0,0,0,0
1.588024,0,0,0,0,0,0,0,0,0,0,0,0,0,0,0,0,0
1.590263,6833,32167,36394,0,0,0,0,0,0,0,0,0,0,0,0,0,0
1.609711,0,0,0,0,0,0,0,0,0,0,0,0,0,0,0,0,0
1.611712,6859,32172,36417,0,0,0,0,0,0,0,0,0,0,0,0,0,0
1.627778,0,0,0,0,0,0,0,0,0,0,0,0,0,0,0,0,0
1.629326,6888,32175,36453,0,0,0,0,0,0,0,0,0,0,0,0,0,0
1.648808,0,0,0,0,0,0,0,0,0,0,0,0,0,0,0,0,0
1.64994,6918,32186,36489,0,0,0,0,0,0,0,0,0,0,0,0,0,0
1.66925,0,0,0,0,0,0,0,0,0,0,0,0,0,0,0,0,0
1.670383,6944,32196,36514,0,0,0,0,0,0,0,0,0,0,0,0,0,0
1.690405,0,0,0,0,0,0,0,0,0,0,0,0,0,0,0,0,0
1.691503,6966,32197,36530,0,0,0,0,0,0,0,0,0,0,0,0,0,0
1.708674,0,0,0,0,0,0,0,0,0,0,0,0,0,0,0,0,0
1.709707,6983,32198,36521,0,0,0,0,0,0,0,0,0,0,0,0,0,0
1.729994,0,0,0,0,0,0,0,0,0,0,0,0,0,0,0,0,0
1.731053,6990,32194,36499,0,0,0,0,0,0,0,0,0,0,0,0,0,0
1.738547,0,0,0,0,0,0,0,0,0,0,0,0,0,0,0,0,0
1.740067,6996,32182,36454,0,0,0,0,0,0,0,0,0,0,0,0,0,0
1.760131,0,0,0,0,0,0,0,0,0,0,0,0,0,0,0,0,0
1.778697,6985,32156,36363,0,0,0,0,0,0,0,0,0,0,0,0,0,0
1.779843,0,0,0,0,0,0,0,0,0,0,0,0,0,0,0,0,0
1.798185,6972,32115,36256,0,0,0,0,0,0,0,0,0,0,0,0,0,0
1.79933,0,0,0,0,0,0,0,0,0,0,0,0,0,0,0,0,0
1.81922,6965,32090,36191,0,0,0,0,0,0,0,0,0,0,0,0,0,0
1.820286,0,0,0,0,0,0,0,0,0,0,0,0,0,0,0,0,0
1.838184,6972,32073,36157,0,0,0,0,0,0,0,0,0,0,0,0,0,0
1.840141,0,0,0,0,0,0,0,0,0,0,0,0,0,0,0,0,0
1.858122,6977,32068,36140,0,0,0,0,0,0,0,0,0,0,0,0,0,0
1.859149,0,0,0,0,0,0,0,0,0,0,0,0,0,0,0,0,0
1.878554,6985,32068,36138,0,0,0,0,0,0,0,0,0,0,0,0,0,0
1.879703,0,0,0,0,0,0,0,0,0,0,0,0,0,0,0,0,0
1.899463,6992,32071,36142,0,0,0,0,0,0,0,0,0,0,0,0,0,0
1.900927,0,0,0,0,0,0,0,0,0,0,0,0,0,0,0,0,0
1.917938,7004,32070,36154,0,0,0,0,0,0,0,0,0,0,0,0,0,0
1.919452,0,0,0,0,0,0,0,0,0,0,0,0,0,0,0,0,0
1.940377,7016,32071,36161,0,0,0,0,0,0,0,0,0,0,0,0,0,0
1.941937,0,0,0,0,0,0,0,0,0,0,0,0,0,0,0,0,0
1.958498,7024,32068,36165,0,0,0,0,0,0,0,0,0,0,0,0,0,0
1.959497,0,0,0,0,0,0,0,0,0,0,0,0,0,0,0,0,0
1.97971,7035,32071,36169,0,0,0,0,0,0,0,0,0,0,0,0,0,0
1.980734,0,0,0,0,0,0,0,0,0,0,0,0,0,0,0,0,0
1.99026,7040,32074,36168,0,0,0,0,0,0,0,0,0,0,0,0,0,0
2.008698,0,0,0,0,0,0,0,0,0,0,0,0,0,0,0,0,0
2.010046,7054,32079,36174,0,0,0,0,0,0,0,0,0,0,0,0,0,0
2.0285,0,0,0,0,0,0,0,0,0,0,0,0,0,0,0,0,0
2.02965,7062,32085,36189,0,0,0,0,0,0,0,0,0,0,0,0,0,0
2.04839,0,0,0,0,0,0,0,0,0,0,0,0,0,0,0,0,0
2.049531,7077,32091,36201,0,0,0,0,0,0,0,0,0,0,0,0,0,0
2.068469,0,0,0,0,0,0,0,0,0,0,0,0,0,0,0,0,0
2.069612,7084,32091,36211,0,0,0,0,0,0,0,0,0,0,0,0,0,0
2.087959,0,0,0,0,0,0,0,0,0,0,0,0,0,0,0,0,0
2.089089,7094,32091,36223,0,0,0,0,0,0,0,0,0,0,0,0,0,0
2.108586,0,0,0,0,0,0,0,0,0,0,0,0,0,0,0,0,0
2.109718,7112,32098,36244,0,0,0,0,0,0,0,0,0,0,0,0,0,0
2.128862,0,0,0,0,0,0,0,0,0,0,0,0,0,0,0,0,0
2.129893,7127,32108,36272,0,0,0,0,0,0,0,0,0,0,0,0,0,0
2.14849,0,0,0,0,0,0,0,0,0,0,0,0,0,0,0,0,0
2.149631,7144,32117,36300,0,0,0,0,0,0,0,0,0,0,0,0,0,0
2.167559,0,0,0,0,0,0,0,0,0,0,0,0,0,0,0,0,0
2.169568,7162,32127,36329,0,0,0,0,0,0,0,0,0,0,0,0,0,0
2.190277,0,0,0,0,0,0,0,0,0,0,0,0,0,0,0,0,0
2.191346,7172,32138,36351,0,0,0,0,0,0,0,0,0,0,0,0,0,0
2.208051,0,0,0,0,0,0,0,0,0,0,0,0,0,0,0,0,0
2.209099,7188,32143,36377,0,0,0,0,0,0,0,0,0,0,0,0,0,0
2.217728,0,0,0,0,0,0,0,0,0,0,0,0,0,0,0,0,0
2.238261,7208,32157,36419,0,0,0,0,0,0,0,0,0,0,0,0,0,0
2.239469,0,0,0,0,0,0,0,0,0,0,0,0,0,0,0,0,0
2.259435,7228,32169,36453,0,0,0,0,0,0,0,0,0,0,0,0,0,0
2.261051,0,0,0,0,0,0,0,0,0,0,0,0,0,0,0,0,0
2.278446,7243,32180,36472,0,0,0,0,0,0,0,0,0,0,0,0,0,0
2.279584,0,0,0,0,0,0,0,0,0,0,0,0,0,0,0,0,0
2.297871,7255,32186,36486,0,0,0,0,0,0,0,0,0,0,0,0,0,0
2.300146,0,0,0,0,0,0,0,0,0,0,0,0,0,0,0,0,0
2.318785,7265,32193,36505,0,0,0,0,0,0,0,0,0,0,0,0,0,0
2.319833,0,0,0,0,0,0,0,0,0,0,0,0,0,0,0,0,0
2.339485,7278,32196,36517,0,0,0,0,0,0,0,0,0,0,0,0,0,0
2.341122,0,0,0,0,0,0,0,0,0,0,0,0,0,0,0,0,0
2.35796,7284,32197,36512,0,0,0,0,0,0,0,0,0,0,0,0,0,0
2.360118,0,0,0,0,0,0,0,0,0,0,0,0,0,0,0,0,0
2.378294,7289,32193,36512,0,0,0,0,0,0,0,0,0,0,0,0,0,0
2.379293,0,0,0,0,0,0,0,0,0,0,0,0,0,0,0,0,0
2.398885,7302,32195,36518,0,0,0,0,0,0,0,0,0,0,0,0,0,0
2.399885,0,0,0,0,0,0,0,0,0,0,0,0,0,0,0,0,0
2.418615,7304,32190,36501,0,0,0,0,0,0,0,0,0,0,0,0,0,0
2.419621,0,0,0,0,0,0,0,0,0,0,0,0,0,0,0,0,0
2.440585,7298,32175,36450,0,0,0,0,0,0,0,0,0,0,0,0,0,0
2.442098,0,0,0,0,0,0,0,0,0,0,0,0,0,0,0,0,0
2.448576,7288,32164,36416,0,0,0,0,0,0,0,0,0,0,0,0,0,0
2.467896,0,0,0,0,0,0,0,0,0,0,0,0,0,0,0,0,0
2.46942,7278,32161,36387,0,0,0,0,0,0,0,0,0,0,0,0,0,0
2.487313,0,0,0,0,0,0,0,0,0,0,0,0,0,0,0,0,0
2.489793,7272,32155,36358,0,0,0,0,0,0,0,0,0,0,0,0,0,0
2.507713,0,0,0,0,0,0,0,0,0,0,0,0,0,0,0,0,0
2.509858,7265,32150,36326,0,0,0,0,0,0,0,0,0,0,0,0,0,0
2.530415,0,0,0,0,0,0,0,0,0,0,0,0,0,0,0,0,0
2.531546,7257,32145,36304,0,0,0,0,0,0,0,0,0,0,0,0,0,0
2.549584,0,0,0,0,0,0,0,0,0,0,0,0,0,0,0,0,0
2.551073,7250,32143,36286,0,0,0,0,0,0,0,0,0,0,0,0,0,0
2.567796,0,0,0,0,0,0,0,0,0,0,0,0,0,0,0,0,0
2.569981,7243,32142,36275,0,0,0,0,0,0,0,0,0,0,0,0,0,0
2.588191,0,0,0,0,0,0,0,0,0,0,0,0,0,0,0,0,0
2.58938,7235,32139,36263,0,0,0,0,0,0,0,0,0,0,0,0,0,0
2.608101,0,0,0,0,0,0,0,0,0,0,0,0,0,0,0,0,0
2.609148,7232,32140,36253,0,0,0,0,0,0,0,0,0,0,0,0,0,0
2.629642,0,0,0,0,0,0,0,0,0,0,0,0,0,0,0,0,0
2.63098,7228,32137,36242,0,0,0,0,0,0,0,0,0,0,0,0,0,0
2.650063,0,0,0,0,0,0,0,0,0,0,0,0,0,0,0,0,0
2.651784,7227,32161,36242,0,0,0,0,0,0,0,0,0,0,0,0,0,0
2.668311,0,0,0,0,0,0,0,0,0,0,0,0,0,0,0,0,0
2.66967,7235,32203,36261,0,0,0,0,0,0,0,0,0,0,0,0,0,0
2.678642,0,0,0,0,0,0,0,0,0,0,0,0,0,0,0,0,0
2.679671,7243,32236,36288,0,0,0,0,0,0,0,0,0,0,0,0,0,0
2.698154,0,0,0,0,0,0,0,0,0,0,0,0,0,0,0,0,0
2.717811,7251,32249,36302,0,0,0,0,0,0,0,0,0,0,0,0,0,0
2.71981,0,0,0,0,0,0,0,0,0,0,0,0,0,0,0,0,0
2.737663,7254,32259,36306,0,0,0,0,0,0,0,0,0,0,0,0,0,0
2.739872,0,0,0,0,0,0,0,0,0,0,0,0,0,0,0,0,0
2.758691,7254,32271,36312,0,0,0,0,0,0,0,0,0,0,0,0,0,0
2.759816,0,0,0,0,0,0,0,0,0,0,0,0,0,0,0,0,0
2.777697,7251,32271,36321,0,0,0,0,0,0,0,0,0,0,0,0,0,0
2.779983,0,0,0,0,0,0,0,0,0,0,0,0,0,0,0,0,0
2.7984,7246,32261,36320,0,0,0,0,0,0,0,0,0,0,0,0,0,0
2.79953,0,0,0,0,0,0,0,0,0,0,0,0,0,0,0,0,0
2.808667,7243,32252,36307,0,0,0,0,0,0,0,0,0,0,0,0,0,0
2.829416,0,0,0,0,0,0,0,0,0,0,0,0,0,0,0,0,0
2.830554,7243,32266,36313,0,0,0,0,0,0,0,0,0,0,0,0,0,0
2.849278,0,0,0,0,0,0,0,0,0,0,0,0,0,0,0,0,0
2.850429,7230,32294,36344,0,0,0,0,0,0,0,0,0,0,0,0,0,0
2.868199,0,0,0,0,0,0,0,0,0,0,0,0,0,0,0,0,0
2.869337,7210,32325,36397,0,0,0,0,0,0,0,0,0,0,0,0,0,0
2.890285,0,0,0,0,0,0,0,0,0,0,0,0,0,0,0,0,0
2.891502,7184,32344,36395,0,0,0,0,0,0,0,0,0,0,0,0,0,0
2.908535,0,0,0,0,0,0,0,0,0,0,0,0,0,0,0,0,0
2.909534,7174,32305,36376,0,0,0,0,0,0,0,0,0,0,0,0,0,0
2.929626,0,0,0,0,0,0,0,0,0,0,0,0,0,0,0,0,0
2.930707,7170,32257,36368,0,0,0,0,0,0,0,0,0,0,0,0,0,0
2.947684,0,0,0,0,0,0,0,0,0,0,0,0,0,0,0,0,0
2.950171,7167,32196,36317,0,0,0,0,0,0,0,0,0,0,0,0,0,0
2.959622,0,0,0,0,0,0,0,0,0,0,0,0,0,0,0,0,0
2.978612,7148,32125,36174,0,0,0,0,0,0,0,0,0,0,0,0,0,0
2.987937,0,0,0,0,0,0,0,0,0,0,0,0,0,0,0,0,0
2.999841,7150,32072,36043,0,0,0,0,0,0,0,0,0,0,0,0,0,0
3.00132,0,0,0,0,0,0,0,0,0,0,0,0,0,0,0,0,0
3.0192,7157,32041,35977,0,0,0,0,0,0,0,0,0,0,0,0,0,0
3.020635,0,0,0,0,0,0,0,0,0,0,0,0,0,0,0,0,0
3.03871,7164,32007,35966,0,0,0,0,0,0,0,0,0,0,0,0,0,0
3.039818,0,0,0,0,0,0,0,0,0,0,0,0,0,0,0,0,0
3.059423,7176,32008,35958,0,0,0,0,0,0,0,0,0,0,0,0,0,0
3.06056,0,0,0,0,0,0,0,0,0,0,0,0,0,0,0,0,0
3.077474,7190,32037,35911,0,0,0,0,0,0,0,0,0,0,0,0,0,0
3.079766,0,0,0,0,0,0,0,0,0,0,0,0,0,0,0,0,0
3.097865,7196,32035,35859,0,0,0,0,0,0,0,0,0,0,0,0,0,0
3.100139,0,0,0,0,0,0,0,0,0,0,0,0,0,0,0,0,0
3.117568,7198,32025,35820,0,0,0,0,0,0,0,0,0,0,0,0,0,0
3.119607,0,0,0,0,0,0,0,0,0,0,0,0,0,0,0,0,0
3.138073,7194,32018,35802,0,0,0,0,0,0,0,0,0,0,0,0,0,0
3.139169,0,0,0,0,0,0,0,0,0,0,0,0,0,0,0,0,0
3.157184,7186,32014,35795,0,0,0,0,0,0,0,0,0,0,0,0,0,0
3.160087,0,0,0,0,0,0,0,0,0,0,0,0,0,0,0,0,0
3.180187,7176,32007,35781,0,0,0,0,0,0,0,0,0,0,0,0,0,0
3.181262,0,0,0,0,0,0,0,0,0,0,0,0,0,0,0,0,0
3.189564,7163,32006,35767,0,0,0,0,0,0,0,0,0,0,0,0,0,0
3.208611,0,0,0,0,0,0,0,0,0,0,0,0,0,0,0,0,0
3.209642,7154,32001,35756,0,0,0,0,0,0,0,0,0,0,0,0,0,0
3.229919,0,0,0,0,0,0,0,0,0,0,0,0,0,0,0,0,0
3.230978,7148,32000,35733,0,0,0,0,0,0,0,0,0,0,0,0,0,0
3.247586,0,0,0,0,0,0,0,0,0,0,0,0,0,0,0,0,0
3.249874,7152,31999,35716,0,0,0,0,0,0,0,0,0,0,0,0,0,0
3.267504,0,0,0,0,0,0,0,0,0,0,0,0,0,0,0,0,0
3.269791,7157,32001,35728,0,0,0,0,0,0,0,0,0,0,0,0,0,0
3.288163,0,0,0,0,0,0,0,0,0,0,0,0,0,0,0,0,0
3.289296,7164,32001,35750,0,0,0,0,0,0,0,0,0,0,0,0,0,0
3.308434,0,0,0,0,0,0,0,0,0,0,0,0,0,0,0,0,0
3.309576,7172,32005,35772,0,0,0,0,0,0,0,0,0,0,0,0,0,0
3.32901,0,0,0,0,0,0,0,0,0,0,0,0,0,0,0,0,0
3.330142,7182,32015,35799,0,0,0,0,0,0,0,0,0,0,0,0,0,0
3.34802,0,0,0,0,0,0,0,0,0,0,0,0,0,0,0,0,0
3.349171,7193,32027,35827,0,0,0,0,0,0,0,0,0,0,0,0,0,0
3.367967,0,0,0,0,0,0,0,0,0,0,0,0,0,0,0,0,0
3.369099,7204,32036,35854,0,0,0,0,0,0,0,0,0,0,0,0,0,0
3.387625,0,0,0,0,0,0,0,0,0,0,0,0,0,0,0,0,0
3.389891,7217,32043,35879,0,0,0,0,0,0,0,0,0,0,0,0,0,0
3.410595,0,0,0,0,0,0,0,0,0,0,0,0,0,0,0,0,0
3.411729,7227,32049,35900,0,0,0,0,0,0,0,0,0,0,0,0,0,0
3.419769,0,0,0,0,0,0,0,0,0,0,0,0,0,0,0,0,0
3.420771,7235,32052,35906,0,0,0,0,0,0,0,0,0,0,0,0,0,0
3.438529,0,0,0,0,0,0,0,0,0,0,0,0,0,0,0,0,0
3.457808,7240,32055,35916,0,0,0,0,0,0,0,0,0,0,0,0,0,0
3.459835,0,0,0,0,0,0,0,0,0,0,0,0,0,0,0,0,0
3.477821,7244,32060,35927,0,0,0,0,0,0,0,0,0,0,0,0,0,0
3.48009,0,0,0,0,0,0,0,0,0,0,0,0,0,0,0,0,0
3.499017,7248,32073,35946,0,0,0,0,0,0,0,0,0,0,0,0,0,0
3.500154,0,0,0,0,0,0,0,0,0,0,0,0,0,0,0,0,0
3.519114,7257,32077,35960,0,0,0,0,0,0,0,0,0,0,0,0,0,0
3.52025,0,0,0,0,0,0,0,0,0,0,0,0,0,0,0,0,0
3.537603,7264,32074,35970,0,0,0,0,0,0,0,0,0,0,0,0,0,0
3.539892,0,0,0,0,0,0,0,0,0,0,0,0,0,0,0,0,0
3.559061,7274,32082,35994,0,0,0,0,0,0,0,0,0,0,0,0,0,0
3.560198,0,0,0,0,0,0,0,0,0,0,0,0,0,0,0,0,0
3.579169,7285,32089,36019,0,0,0,0,0,0,0,0,0,0,0,0,0,0
3.58031,0,0,0,0,0,0,0,0,0,0,0,0,0,0,0,0,0
3.599246,7296,32098,36035,0,0,0,0,0,0,0,0,0,0,0,0,0,0
3.600282,0,0,0,0,0,0,0,0,0,0,0,0,0,0,0,0,0
3.617791,7305,32099,36044,0,0,0,0,0,0,0,0,0,0,0,0,0,0
3.619843,0,0,0,0,0,0,0,0,0,0,0,0,0,0,0,0,0
3.637703,7312,32101,36051,0,0,0,0,0,0,0,0,0,0,0,0,0,0
3.639874,0,0,0,0,0,0,0,0,0,0,0,0,0,0,0,0,0
3.65846,7321,32106,36071,0,0,0,0,0,0,0,0,0,0,0,0,0,0
3.659558,0,0,0,0,0,0,0,0,0,0,0,0,0,0,0,0,0
3.668685,7331,32112,36086,0,0,0,0,0,0,0,0,0,0,0,0,0,0
3.689686,0,0,0,0,0,0,0,0,0,0,0,0,0,0,0,0,0
3.690686,7336,32115,36086,0,0,0,0,0,0,0,0,0,0,0,0,0,0
3.709319,0,0,0,0,0,0,0,0,0,0,0,0,0,0,0,0,0
3.710319,7337,32112,36079,0,0,0,0,0,0,0,0,0,0,0,0,0,0
3.728371,0,0,0,0,0,0,0,0,0,0,0,0,0,0,0,0,0
3.729371,7332,32110,36068,0,0,0,0,0,0,0,0,0,0,0,0,0,0
3.748465,0,0,0,0,0,0,0,0,0,0,0,0,0,0,0,0,0
3.750491,7329,32103,36054,0,0,0,0,0,0,0,0,0,0,0,0,0,0
3.767745,0,0,0,0,0,0,0,0,0,0,0,0,0,0,0,0,0
3.770304,7320,32099,36039,0,0,0,0,0,0,0,0,0,0,0,0,0,0
3.78851,0,0,0,0,0,0,0,0,0,0,0,0,0,0,0,0,0
3.790707,7310,32096,36028,0,0,0,0,0,0,0,0,0,0,0,0,0,0
3.809732,0,0,0,0,0,0,0,0,0,0,0,0,0,0,0,0,0
3.810733,7298,32093,36018,0,0,0,0,0,0,0,0,0,0,0,0,0,0
3.829092,0,0,0,0,0,0,0,0,0,0,0,0,0,0,0,0,0
3.830873,7288,32084,36000,0,0,0,0,0,0,0,0,0,0,0,0,0,0
3.849269,0,0,0,0,0,0,0,0,0,0,0,0,0,0,0,0,0
3.850704,7277,32078,35987,0,0,0,0,0,0,0,0,0,0,0,0,0,0
3.870426,0,0,0,0,0,0,0,0,0,0,0,0,0,0,0,0,0
3.871442,7267,32074,35970,0,0,0,0,0,0,0,0,0,0,0,0,0,0
3.889482,0,0,0,0,0,0,0,0,0,0,0,0,0,0,0,0,0
3.890606,7255,32065,35954,0,0,0,0,0,0,0,0,0,0,0,0,0,0
3.898653,0,0,0,0,0,0,0,0,0,0,0,0,0,0,0,0,0
3.919688,7245,32065,35950,0,0,0,0,0,0,0,0,0,0,0,0,0,0
3.920827,0,0,0,0,0,0,0,0,0,0,0,0,0,0,0,0,0
3.93725,7244,32072,35967,0,0,0,0,0,0,0,0,0,0,0,0,0,0
3.939719,0,0,0,0,0,0,0,0,0,0,0,0,0,0,0,0,0
3.957871,7251,32074,35987,0,0,0,0,0,0,0,0,0,0,0,0,0,0
3.959949,0,0,0,0,0,0,0,0,0,0,0,0,0,0,0,0,0
3.979048,7256,32077,36002,0,0,0,0,0,0,0,0,0,0,0,0,0,0
3.980185,0,0,0,0,0,0,0,0,0,0,0,0,0,0,0,0,0
4.000472,7265,32078,36015,0,0,0,0,0,0,0,0,0,0,0,0,0,0
4.002155,0,0,0,0,0,0,0,0,0,0,0,0,0,0,0,0,0
4.017525,7276,32079,36031,0,0,0,0,0,0,0,0,0,0,0,0,0,0
4.019823,0,0,0,0,0,0,0,0,0,0,0,0,0,0,0,0,0
4.038046,7286,32075,36043,0,0,0,0,0,0,0,0,0,0,0,0,0,0
4.040047,0,0,0,0,0,0,0,0,0,0,0,0,0,0,0,0,0
4.057445,7292,32080,36057,0,0,0,0,0,0,0,0,0,0,0,0,0,0
4.059707,0,0,0,0,0,0,0,0,0,0,0,0,0,0,0,0,0
4.077517,7299,32082,36065,0,0,0,0,0,0,0,0,0,0,0,0,0,0
4.079883,0,0,0,0,0,0,0,0,0,0,0,0,0,0,0,0,0
4.099102,7301,32082,36062,0,0,0,0,0,0,0,0,0,0,0,0,0,0
4.100234,0,0,0,0,0,0,0,0,0,0,0,0,0,0,0,0,0
4.118522,7304,32081,36065,0,0,0,0,0,0,0,0,0,0,0,0,0,0
4.119522,0,0,0,0,0,0,0,0,0,0,0,0,0,0,0,0,0
4.129035,7304,32082,36073,0,0,0,0,0,0,0,0,0,0,0,0,0,0
4.147855,0,0,0,0,0,0,0,0,0,0,0,0,0,0,0,0,0
4.150147,7308,32086,36080,0,0,0,0,0,0,0,0,0,0,0,0,0,0
4.168811,0,0,0,0,0,0,0,0,0,0,0,0,0,0,0,0,0
4.170442,7311,32089,36086,0,0,0,0,0,0,0,0,0,0,0,0,0,0
4.188025,0,0,0,0,0,0,0,0,0,0,0,0,0,0,0,0,0
4.18917,7314,32095,36096,0,0,0,0,0,0,0,0,0,0,0,0,0,0
4.208717,0,0,0,0,0,0,0,0,0,0,0,0,0,0,0,0,0
4.209851,7317,32103,36113,0,0,0,0,0,0,0,0,0,0,0,0,0,0
4.228259,0,0,0,0,0,0,0,0,0,0,0,0,0,0,0,0,0
4.229403,7324,32109,36134,0,0,0,0,0,0,0,0,0,0,0,0,0,0
4.247323,0,0,0,0,0,0,0,0,0,0,0,0,0,0,0,0,0
4.250133,7330,32113,36139,0,0,0,0,0,0,0,0,0,0,0,0,0,0
4.267929,0,0,0,0,0,0,0,0,0,0,0,0,0,0,0,0,0
4.27013,7335,32109,36136,0,0,0,0,0,0,0,0,0,0,0,0,0,0
4.288405,0,0,0,0,0,0,0,0,0,0,0,0,0,0,0,0,0
4.289405,7338,32110,36139,0,0,0,0,0,0,0,0,0,0,0,0,0,0
4.30855,0,0,0,0,0,0,0,0,0,0,0,0,0,0,0,0,0
4.30955,7341,32115,36155,0,0,0,0,0,0,0,0,0,0,0,0,0,0
4.328595,0,0,0,0,0,0,0,0,0,0,0,0,0,0,0,0,0
4.329664,7350,32116,36158,0,0,0,0,0,0,0,0,0,0,0,0,0,0
4.348043,0,0,0,0,0,0,0,0,0,0,0,0,0,0,0,0,0
4.350086,7350,32106,36140,0,0,0,0,0,0,0,0,0,0,0,0,0,0
4.358611,0,0,0,0,0,0,0,0,0,0,0,0,0,0,0,0,0
4.35964,7341,32100,36115,0,0,0,0,0,0,0,0,0,0,0,0,0,0
4.380114,0,0,0,0,0,0,0,0,0,0,0,0,0,0,0,0,0
4.397937,7325,32091,36092,0,0,0,0,0,0,0,0,0,0,0,0,0,0
4.39996,0,0,0,0,0,0,0,0,0,0,0,0,0,0,0,0,0
4.419454,7308,32086,36076,0,0,0,0,0,0,0,0,0,0,0,0,0,0
4.420341,0,0,0,0,0,0,0,0,0,0,0,0,0,0,0,0,0
4.440123,7287,32086,36059,0,0,0,0,0,0,0,0,0,0,0,0,0,0
4.441123,0,0,0,0,0,0,0,0,0,0,0,0,0,0,0,0,0
4.459402,0,0,0,0,0,0,0,0,0,0,0,0,0,0,0,0,0
4.460402,7264,32087,36039,0,0,0,0,0,0,0,0,0,0,0,0,0,0
4.478659,0,0,0,0,0,0,0,0,0,0,0,0,0,0,0,0,0
4.479791,7239,32077,36007,0,0,0,0,0,0,0,0,0,0,0,0,0,0
4.497684,0,0,0,0,0,0,0,0,0,0,0,0,0,0,0,0,0
4.499178,7212,32071,35981,0,0,0,0,0,0,0,0,0,0,0,0,0,0
4.520665,0,0,0,0,0,0,0,0,0,0,0,0,0,0,0,0,0
4.521671,7189,32064,35960,0,0,0,0,0,0,0,0,0,0,0,0,0,0
4.539555,0,0,0,0,0,0,0,0,0,0,0,0,0,0,0,0,0
4.540556,7168,32052,35942,0,0,0,0,0,0,0,0,0,0,0,0,0,0
4.558902,0,0,0,0,0,0,0,0,0,0,0,0,0,0,0,0,0
4.560048,7155,32044,35937,0,0,0,0,0,0,0,0,0,0,0,0,0,0
4.580351,0,0,0,0,0,0,0,0,0,0,0,0,0,0,0,0,0
4.58135,7150,32046,35940,0,0,0,0,0,0,0,0,0,0,0,0,0,0
4.598053,0,0,0,0,0,0,0,0,0,0,0,0,0,0,0,0,0
4.599767,7147,32050,35957,0,0,0,0,0,0,0,0,0,0,0,0,0,0
4.608327,0,0,0,0,0,0,0,0,0,0,0,0,0,0,0,0,0
4.628485,7148,32053,35973,0,0,0,0,0,0,0,0,0,0,0,0,0,0
4.629519,0,0,0,0,0,0,0,0,0,0,0,0,0,0,0,0,0
4.647841,7150,32056,35981,0,0,0,0,0,0,0,0,0,0,0,0,0,0
4.649885,0,0,0,0,0,0,0,0,0,0,0,0,0,0,0,0,0
4.66837,7154,32058,35995,0,0,0,0,0,0,0,0,0,0,0,0,0,0
4.669402,0,0,0,0,0,0,0,0,0,0,0,0,0,0,0,0,0
4.688483,7157,32063,36011,0,0,0,0,0,0,0,0,0,0,0,0,0,0
4.689619,0,0,0,0,0,0,0,0,0,0,0,0,0,0,0,0,0
4.710179,7165,32071,36031,0,0,0,0,0,0,0,0,0,0,0,0,0,0
4.711309,0,0,0,0,0,0,0,0,0,0,0,0,0,0,0,0,0
4.728139,7169,32075,36050,0,0,0,0,0,0,0,0,0,0,0,0,0,0
4.730145,0,0,0,0,0,0,0,0,0,0,0,0,0,0,0,0,0
4.749034,7174,32076,36055,0,0,0,0,0,0,0,0,0,0,0,0,0,0
4.750107,0,0,0,0,0,0,0,0,0,0,0,0,0,0,0,0,0
4.768878,7175,32078,36065,0,0,0,0,0,0,0,0,0,0,0,0,0,0
4.769918,0,0,0,0,0,0,0,0,0,0,0,0,0,0,0,0,0
4.777992,7177,32080,36071,0,0,0,0,0,0,0,0,0,0,0,0,0,0
4.800086,0,0,0,0,0,0,0,0,0,0,0,0,0,0,0,0,0
4.801299,7178,32082,36079,0,0,0,0,0,0,0,0,0,0,0,0,0,0
4.819803,0,0,0,0,0,0,0,0,0,0,0,0,0,0,0,0,0
4.820803,7179,32082,36085,0,0,0,0,0,0,0,0,0,0,0,0,0,0
4.839979,0,0,0,0,0,0,0,0,0,0,0,0,0,0,0,0,0
4.840487,7181,32083,36095,0,0,0,0,0,0,0,0,0,0,0,0,0,0
4.858103,0,0,0,0,0,0,0,0,0,0,0,0,0,0,0,0,0
4.859102,7185,32089,36114,0,0,0,0,0,0,0,0,0,0,0,0,0,0
4.878541,0,0,0,0,0,0,0,0,0,0,0,0,0,0,0,0,0
4.879682,7191,32096,36133,0,0,0,0,0,0,0,0,0,0,0,0,0,0
4.899531,0,0,0,0,0,0,0,0,0,0,0,0,0,0,0,0,0
4.901006,7197,32097,36143,0,0,0,0,0,0,0,0,0,0,0,0,0,0
4.908761,0,0,0,0,0,0,0,0,0,0,0,0,0,0,0,0,0
4.92997,7203,32096,36143,0,0,0,0,0,0,0,0,0,0,0,0,0,0
4.93101,0,0,0,0,0,0,0,0,0,0,0,0,0,0,0,0,0
4.949143,7203,32094,36149,0,0,0,0,0,0,0,0,0,0,0,0,0,0
4.950591,0,0,0,0,0,0,0,0,0,0,0,0,0,0,0,0,0
4.967746,7205,32098,36162,0,0,0,0,0,0,0,0,0,0,0,0,0,0
4.968798,0,0,0,0,0,0,0,0,0,0,0,0,0,0,0,0,0
4.988806,7209,32105,36178,0,0,0,0,0,0,0,0,0,0,0,0,0,0
