时间/s,PPG_G,PPG_R,PPG_IR,U1h,U1l,U2h,U2l,U3h,U3l,U4h,U4l,ACCX,ACCY,ACCZ,GX,GY,GZ
0,7255,32541,37497,0,0,0,0,0,0,0,0,0,0,0,0,0,0
0.06075,7263,32546,37501,0,0,0,0,0,0,0,0,0,0,0,0,0,0
0.061962,7271,32543,37506,0,0,0,0,0,0,0,0,0,0,0,0,0,0
0.06345,7269,32536,37482,0,0,0,0,0,0,0,0,0,0,0,0,0,0
0.06445,7270,32525,37465,0,0,0,0,0,0,0,0,0,0,0,0,0,0
0.065449,7267,32517,37443,0,0,0,0,0,0,0,0,0,0,0,0,0,0
0.066449,7265,32508,37431,0,0,0,0,0,0,0,0,0,0,0,0,0,0
0.079951,7269,32507,37418,0,0,0,0,0,0,0,0,0,0,0,0,0,0
0.081067,7272,32504,37416,0,0,0,0,0,0,0,0,0,0,0,0,0,0
0.100016,7272,32504,37410,0,0,0,0,0,0,0,0,0,0,0,0,0,0
0.102016,7275,32510,37415,0,0,0,0,0,0,0,0,0,0,0,0,0,0
0.122025,7276,32513,37422,0,0,0,0,0,0,0,0,0,0,0,0,0,0
0.123547,7279,32516,37424,0,0,0,0,0,0,0,0,0,0,0,0,0,0
0.140805,7283,32520,37427,0,0,0,0,0,0,0,0,0,0,0,0,0,0
0.143095,7286,32520,37434,0,0,0,0,0,0,0,0,0,0,0,0,0,0
0.159804,7289,32524,37435,0,0,0,0,0,0,0,0,0,0,0,0,0,0
0.161311,7291,32517,37435,0,0,0,0,0,0,0,0,0,0,0,0,0,0
0.180447,7295,32518,37428,0,0,0,0,0,0,0,0,0,0,0,0,0,0
0.181586,7299,32514,37422,0,0,0,0,0,0,0,0,0,0,0,0,0,0
0.200744,7299,32512,37419,0,0,0,0,0,0,0,0,0,0,0,0,0,0
0.201766,7305,32512,37422,0,0,0,0,0,0,0,0,0,0,0,0,0,0
0.221556,7310,32523,37433,0,0,0,0,0,0,0,0,0,0,0,0,0,0
0.223061,7316,32522,37445,0,0,0,0,0,0,0,0,0,0,0,0,0,0
0.241638,7320,32529,37449,0,0,0,0,0,0,0,0,0,0,0,0,0,0
0.242637,7326,32528,37450,0,0,0,0,0,0,0,0,0,0,0,0,0,0
0.260411,7327,32530,37455,0,0,0,0,0,0,0,0,0,0,0,0,0,0
0.261966,7331,32525,37454,0,0,0,0,0,0,0,0,0,0,0,0,0,0
0.280283,7331,32529,37452,0,0,0,0,0,0,0,0,0,0,0,0,0,0
0.282283,7336,32523,37454,0,0,0,0,0,0,0,0,0,0,0,0,0,0
0.300559,7339,32528,37452,0,0,0,0,0,0,0,0,0,0,0,0,0,0
0.301589,7343,32526,37458,0,0,0,0,0,0,0,0,0,0,0,0,0,0
0.320378,7344,32525,37457,0,0,0,0,0,0,0,0,0,0,0,0,0,0
0.321464,7350,32522,37455,0,0,0,0,0,0,0,0,0,0,0,0,0,0
0.339973,7349,32523,37449,0,0,0,0,0,0,0,0,0,0,0,0,0,0
0.341973,7353,32514,37443,0,0,0,0,0,0,0,0,0,0,0,0,0,0
0.361298,7358,32517,37438,0,0,0,0,0,0,0,0,0,0,0,0,0,0
0.362508,7359,32514,37440,0,0,0,0,0,0,0,0,0,0,0,0,0,0
0.380951,7361,32515,37444,0,0,0,0,0,0,0,0,0,0,0,0,0,0
0.382197,7365,32518,37447,0,0,0,0,0,0,0,0,0,0,0,0,0,0
0.401224,7367,32520,37452,0,0,0,0,0,0,0,0,0,0,0,0,0,0
0.402224,7371,32519,37459,0,0,0,0,0,0,0,0,0,0,0,0,0,0
0.420527,7377,32524,37462,0,0,0,0,0,0,0,0,0,0,0,0,0,0
0.421527,7380,32521,37464,0,0,0,0,0,0,0,0,0,0,0,0,0,0
0.440244,7385,32528,37472,0,0,0,0,0,0,0,0,0,0,0,0,0,0
0.442244,7392,32529,37481,0,0,0,0,0,0,0,0,0,0,0,0,0,0
0.449693,7393,32535,37495,0,0,0,0,0,0,0,0,0,0,0,0,0,0
0.469835,7402,32540,37506,0,0,0,0,0,0,0,0,0,0,0,0,0,0
0.471835,7406,32547,37518,0,0,0,0,0,0,0,0,0,0,0,0,0,0
0.490165,7411,32550,37534,0,0,0,0,0,0,0,0,0,0,0,0,0,0
0.491336,7417,32556,37546,0,0,0,0,0,0,0,0,0,0,0,0,0,0
0.511429,7426,32555,37552,0,0,0,0,0,0,0,0,0,0,0,0,0,0
0.512453,7428,32559,37553,0,0,0,0,0,0,0,0,0,0,0,0,0,0
0.530519,7432,32559,37558,0,0,0,0,0,0,0,0,0,0,0,0,0,0
0.531518,7437,32562,37561,0,0,0,0,0,0,0,0,0,0,0,0,0,0
0.550519,7440,32561,37563,0,0,0,0,0,0,0,0,0,0,0,0,0,0
0.551519,7442,32562,37565,0,0,0,0,0,0,0,0,0,0,0,0,0,0
0.569549,7445,32561,37568,0,0,0,0,0,0,0,0,0,0,0,0,0,0
0.571556,7449,32563,37575,0,0,0,0,0,0,0,0,0,0,0,0,0,0
0.590047,7455,32571,37585,0,0,0,0,0,0,0,0,0,0,0,0,0,0
0.591549,7459,32577,37600,0,0,0,0,0,0,0,0,0,0,0,0,0,0
0.610421,7469,32583,37617,0,0,0,0,0,0,0,0,0,0,0,0,0,0
0.611433,7471,32587,37628,0,0,0,0,0,0,0,0,0,0,0,0,0,0
0.631899,7479,32586,37630,0,0,0,0,0,0,0,0,0,0,0,0,0,0
0.632899,7482,32583,37622,0,0,0,0,0,0,0,0,0,0,0,0,0,0
0.6499,7483,32581,37614,0,0,0,0,0,0,0,0,0,0,0,0,0,0
0.6519,7482,32574,37607,0,0,0,0,0,0,0,0,0,0,0,0,0,0
0.671406,7485,32575,37608,0,0,0,0,0,0,0,0,0,0,0,0,0,0
0.673407,7487,32577,37608,0,0,0,0,0,0,0,0,0,0,0,0,0,0
0.681499,7492,32578,37615,0,0,0,0,0,0,0,0,0,0,0,0,0,0
0.700821,7497,32574,37613,0,0,0,0,0,0,0,0,0,0,0,0,0,0
0.701847,7500,32573,37614,0,0,0,0,0,0,0,0,0,0,0,0,0,0
0.721905,7499,32568,37606,0,0,0,0,0,0,0,0,0,0,0,0,0,0
0.723411,7502,32562,37594,0,0,0,0,0,0,0,0,0,0,0,0,0,0
0.741112,7503,32554,37582,0,0,0,0,0,0,0,0,0,0,0,0,0,0
0.742112,7502,32556,37580,0,0,0,0,0,0,0,0,0,0,0,0,0,0
0.760113,7502,32547,37573,0,0,0,0,0,0,0,0,0,0,0,0,0,0
0.761113,7505,32550,37568,0,0,0,0,0,0,0,0,0,0,0,0,0,0
0.78162,7503,32537,37558,0,0,0,0,0,0,0,0,0,0,0,0,0,0
0.78262,7505,32541,37548,0,0,0,0,0,0,0,0,0,0,0,0,0,0
0.800404,7503,32538,37533,0,0,0,0,0,0,0,0,0,0,0,0,0,0
0.801424,7501,32533,37527,0,0,0,0,0,0,0,0,0,0,0,0,0,0
0.821535,7501,32530,37523,0,0,0,0,0,0,0,0,0,0,0,0,0,0
0.823045,7501,32536,37527,0,0,0,0,0,0,0,0,0,0,0,0,0,0
0.841495,7508,32542,37534,0,0,0,0,0,0,0,0,0,0,0,0,0,0
0.842595,7507,32549,37545,0,0,0,0,0,0,0,0,0,0,0,0,0,0
0.860314,7512,32548,37549,0,0,0,0,0,0,0,0,0,0,0,0,0,0
0.861314,7513,32551,37557,0,0,0,0,0,0,0,0,0,0,0,0,0,0
0.881716,7513,32550,37557,0,0,0,0,0,0,0,0,0,0,0,0,0,0
0.882716,7520,32552,37556,0,0,0,0,0,0,0,0,0,0,0,0,0,0
0.900909,7519,32551,37546,0,0,0,0,0,0,0,0,0,0,0,0,0,0
0.901927,7520,32542,37534,0,0,0,0,0,0,0,0,0,0,0,0,0,0
0.911251,7521,32533,37524,0,0,0,0,0,0,0,0,0,0,0,0,0,0
0.912247,7519,32531,37514,0,0,0,0,0,0,0,0,0,0,0,0,0,0
0.931665,7517,32528,37511,0,0,0,0,0,0,0,0,0,0,0,0,0,0
0.950908,7523,32529,37520,0,0,0,0,0,0,0,0,0,0,0,0,0,0
0.951908,7522,32534,37529,0,0,0,0,0,0,0,0,0,0,0,0,0,0
0.97038,7529,32541,37538,0,0,0,0,0,0,0,0,0,0,0,0,0,0
0.971395,7532,32544,37551,0,0,0,0,0,0,0,0,0,0,0,0,0,0
0.991089,7537,32551,37561,0,0,0,0,0,0,0,0,0,0,0,0,0,0
0.99233,7542,32548,37564,0,0,0,0,0,0,0,0,0,0,0,0,0,0
1.009965,7543,32551,37557,0,0,0,0,0,0,0,0,0,0,0,0,0,0
1.011965,7546,32541,37555,0,0,0,0,0,0,0,0,0,0,0,0,0,0
1.029874,7543,32542,37546,0,0,0,0,0,0,0,0,0,0,0,0,0,0
1.031875,7549,32537,37553,0,0,0,0,0,0,0,0,0,0,0,0,0,0
1.051059,7551,32544,37560,0,0,0,0,0,0,0,0,0,0,0,0,0,0
1.052323,7554,32549,37566,0,0,0,0,0,0,0,0,0,0,0,0,0,0
1.07151,7561,32554,37578,0,0,0,0,0,0,0,0,0,0,0,0,0,0
1.07251,7565,32559,37586,0,0,0,0,0,0,0,0,0,0,0,0,0,0
1.089761,7570,32564,37603,0,0,0,0,0,0,0,0,0,0,0,0,0,0
1.092009,7578,32574,37622,0,0,0,0,0,0,0,0,0,0,0,0,0,0
1.11005,7585,32591,37650,0,0,0,0,0,0,0,0,0,0,0,0,0,0
1.111083,7596,32602,37679,0,0,0,0,0,0,0,0,0,0,0,0,0,0
1.129666,7603,32615,37699,0,0,0,0,0,0,0,0,0,0,0,0,0,0
1.131667,7611,32620,37716,0,0,0,0,0,0,0,0,0,0,0,0,0,0
1.150758,7616,32627,37731,0,0,0,0,0,0,0,0,0,0,0,0,0,0
1.151868,7623,32631,37731,0,0,0,0,0,0,0,0,0,0,0,0,0,0
1.159714,7628,32630,37734,0,0,0,0,0,0,0,0,0,0,0,0,0,0
1.181928,7631,32629,37735,0,0,0,0,0,0,0,0,0,0,0,0,0,0
1.182927,7633,32630,37739,0,0,0,0,0,0,0,0,0,0,0,0,0,0
1.200609,7640,32636,37749,0,0,0,0,0,0,0,0,0,0,0,0,0,0
1.201639,7644,32643,37769,0,0,0,0,0,0,0,0,0,0,0,0,0,0
1.221611,7654,32651,37792,0,0,0,0,0,0,0,0,0,0,0,0,0,0
1.223123,7661,32665,37815,0,0,0,0,0,0,0,0,0,0,0,0,0,0
1.241256,7669,32669,37831,0,0,0,0,0,0,0,0,0,0,0,0,0,0
1.242283,7674,32674,37841,0,0,0,0,0,0,0,0,0,0,0,0,0,0
1.261455,7678,32675,37842,0,0,0,0,0,0,0,0,0,0,0,0,0,0
1.262484,7679,32676,37850,0,0,0,0,0,0,0,0,0,0,0,0,0,0
1.280453,7687,32676,37856,0,0,0,0,0,0,0,0,0,0,0,0,0,0
1.281453,7688,32677,37863,0,0,0,0,0,0,0,0,0,0,0,0,0,0
1.299843,7697,32679,37869,0,0,0,0,0,0,0,0,0,0,0,0,0,0
1.301888,7700,32683,37875,0,0,0,0,0,0,0,0,0,0,0,0,0,0
1.320084,7706,32687,37882,0,0,0,0,0,0,0,0,0,0,0,0,0,0
1.322084,7707,32689,37892,0,0,0,0,0,0,0,0,0,0,0,0,0,0
1.341934,7712,32682,37892,0,0,0,0,0,0,0,0,0,0,0,0,0,0
1.343041,7713,32684,37884,0,0,0,0,0,0,0,0,0,0,0,0,0,0
1.360981,7721,32682,37883,0,0,0,0,0,0,0,0,0,0,0,0,0,0
1.362093,7715,32678,37873,0,0,0,0,0,0,0,0,0,0,0,0,0,0
1.381441,7720,32672,37868,0,0,0,0,0,0,0,0,0,0,0,0,0,0
1.382502,7722,32671,37861,0,0,0,0,0,0,0,0,0,0,0,0,0,0
1.391237,7723,32662,37848,0,0,0,0,0,0,0,0,0,0,0,0,0,0
1.411236,7721,32658,37846,0,0,0,0,0,0,0,0,0,0,0,0,0,0
1.412343,7724,32656,37837,0,0,0,0,0,0,0,0,0,0,0,0,0,0
1.43228,7721,32649,37833,0,0,0,0,0,0,0,0,0,0,0,0,0,0
1.433309,7725,32648,37831,0,0,0,0,0,0,0,0,0,0,0,0,0,0
1.450375,7724,32645,37825,0,0,0,0,0,0,0,0,0,0,0,0,0,0
1.458469,7729,32644,37826,0,0,0,0,0,0,0,0,0,0,0,0,0,0
1.471134,7727,32648,37823,0,0,0,0,0,0,0,0,0,0,0,0,0,0
1.472134,7731,32647,37823,0,0,0,0,0,0,0,0,0,0,0,0,0,0
1.490134,7730,32642,37820,0,0,0,0,0,0,0,0,0,0,0,0,0,0
1.491189,7735,32640,37811,0,0,0,0,0,0,0,0,0,0,0,0,0,0
1.512063,7730,32639,37801,0,0,0,0,0,0,0,0,0,0,0,0,0,0
1.513083,7732,32633,37788,0,0,0,0,0,0,0,0,0,0,0,0,0,0
1.529697,7729,32627,37768,0,0,0,0,0,0,0,0,0,0,0,0,0,0
1.531833,7725,32622,37752,0,0,0,0,0,0,0,0,0,0,0,0,0,0
1.55029,7717,32619,37736,0,0,0,0,0,0,0,0,0,0,0,0,0,0
1.55129,7711,32614,37721,0,0,0,0,0,0,0,0,0,0,0,0,0,0
1.57242,7706,32612,37710,0,0,0,0,0,0,0,0,0,0,0,0,0,0
1.573731,7708,32605,37702,0,0,0,0,0,0,0,0,0,0,0,0,0,0
1.590906,7701,32608,37692,0,0,0,0,0,0,0,0,0,0,0,0,0,0
1.591937,7702,32605,37686,0,0,0,0,0,0,0,0,0,0,0,0,0,0
1.612131,7701,32598,37682,0,0,0,0,0,0,0,0,0,0,0,0,0,0
1.613131,7702,32592,37674,0,0,0,0,0,0,0,0,0,0,0,0,0,0
1.621206,7702,32595,37670,0,0,0,0,0,0,0,0,0,0,0,0,0,0
1.639962,7703,32589,37663,0,0,0,0,0,0,0,0,0,0,0,0,0,0
1.641999,7704,32585,37650,0,0,0,0,0,0,0,0,0,0,0,0,0,0
1.662395,7702,32577,37641,0,0,0,0,0,0,0,0,0,0,0,0,0,0
1.663417,7701,32571,37624,0,0,0,0,0,0,0,0,0,0,0,0,0,0
1.679577,7703,32566,37617,0,0,0,0,0,0,0,0,0,0,0,0,0,0
1.681577,7700,32564,37611,0,0,0,0,0,0,0,0,0,0,0,0,0,0
1.701257,7704,32559,37608,0,0,0,0,0,0,0,0,0,0,0,0,0,0
1.702257,7703,32563,37607,0,0,0,0,0,0,0,0,0,0,0,0,0,0
1.720258,7708,32563,37614,0,0,0,0,0,0,0,0,0,0,0,0,0,0
1.721258,7711,32564,37621,0,0,0,0,0,0,0,0,0,0,0,0,0,0
1.741243,7714,32570,37630,0,0,0,0,0,0,0,0,0,0,0,0,0,0
1.742357,7716,32572,37641,0,0,0,0,0,0,0,0,0,0,0,0,0,0
1.759779,7719,32578,37654,0,0,0,0,0,0,0,0,0,0,0,0,0,0
1.761813,7726,32581,37659,0,0,0,0,0,0,0,0,0,0,0,0,0,0
1.78215,7732,32581,37663,0,0,0,0,0,0,0,0,0,0,0,0,0,0
1.783294,7732,32582,37669,0,0,0,0,0,0,0,0,0,0,0,0,0,0
1.800457,7737,32588,37677,0,0,0,0,0,0,0,0,0,0,0,0,0,0
1.801725,7740,32592,37688,0,0,0,0,0,0,0,0,0,0,0,0,0,0
1.820833,7743,32596,37700,0,0,0,0,0,0,0,0,0,0,0,0,0,0
1.821839,7752,32604,37721,0,0,0,0,0,0,0,0,0,0,0,0,0,0
1.841631,7754,32612,37740,0,0,0,0,0,0,0,0,0,0,0,0,0,0
1.842631,7767,32620,37757,0,0,0,0,0,0,0,0,0,0,0,0,0,0
1.850243,7768,32626,37774,0,0,0,0,0,0,0,0,0,0,0,0,0,0
1.851346,7776,32633,37788,0,0,0,0,0,0,0,0,0,0,0,0,0,0
1.869766,7776,32638,37802,0,0,0,0,0,0,0,0,0,0,0,0,0,0
1.890704,7784,32638,37808,0,0,0,0,0,0,0,0,0,0,0,0,0,0
1.891885,7788,32644,37815,0,0,0,0,0,0,0,0,0,0,0,0,0,0
1.911479,7791,32644,37818,0,0,0,0,0,0,0,0,0,0,0,0,0,0
1.912499,7794,32642,37822,0,0,0,0,0,0,0,0,0,0,0,0,0,0
1.930481,7799,32642,37824,0,0,0,0,0,0,0,0,0,0,0,0,0,0
1.931439,7800,32643,37829,0,0,0,0,0,0,0,0,0,0,0,0,0,0
1.949866,7803,32645,37830,0,0,0,0,0,0,0,0,0,0,0,0,0,0
1.951917,7806,32641,37832,0,0,0,0,0,0,0,0,0,0,0,0,0,0
1.970428,7811,32646,37840,0,0,0,0,0,0,0,0,0,0,0,0,0,0
1.971428,7811,32644,37840,0,0,0,0,0,0,0,0,0,0,0,0,0,0
1.991099,7815,32645,37851,0,0,0,0,0,0,0,0,0,0,0,0,0,0
1.992099,7819,32649,37857,0,0,0,0,0,0,0,0,0,0,0,0,0,0
2.01031,7825,32653,37869,0,0,0,0,0,0,0,0,0,0,0,0,0,0
2.011808,7827,32660,37885,0,0,0,0,0,0,0,0,0,0,0,0,0,0
2.029814,7839,32669,37897,0,0,0,0,0,0,0,0,0,0,0,0,0,0
2.031822,7842,32676,37914,0,0,0,0,0,0,0,0,0,0,0,0,0,0
2.050693,7846,32677,37920,0,0,0,0,0,0,0,0,0,0,0,0,0,0
2.051714,7848,32680,37935,0,0,0,0,0,0,0,0,0,0,0,0,0,0
2.071466,7857,32687,37947,0,0,0,0,0,0,0,0,0,0,0,0,0,0
2.072502,7852,32690,37954,0,0,0,0,0,0,0,0,0,0,0,0,0,0
2.09097,7862,32693,37961,0,0,0,0,0,0,0,0,0,0,0,0,0,0
2.091969,7868,32689,37962,0,0,0,0,0,0,0,0,0,0,0,0,0,0
2.101467,7870,32687,37961,0,0,0,0,0,0,0,0,0,0,0,0,0,0
2.119578,7868,32684,37960,0,0,0,0,0,0,0,0,0,0,0,0,0,0
2.121822,7874,32687,37964,0,0,0,0,0,0,0,0,0,0,0,0,0,0
2.140046,7876,32691,37968,0,0,0,0,0,0,0,0,0,0,0,0,0,0
2.142045,7884,32690,37975,0,0,0,0,0,0,0,0,0,0,0,0,0,0
2.160161,7885,32694,37982,0,0,0,0,0,0,0,0,0,0,0,0,0,0
2.16116,7888,32694,37986,0,0,0,0,0,0,0,0,0,0,0,0,0,0
2.180013,7894,32697,37985,0,0,0,0,0,0,0,0,0,0,0,0,0,0
2.181035,7894,32696,37992,0,0,0,0,0,0,0,0,0,0,0,0,0,0
2.200363,7894,32688,37983,0,0,0,0,0,0,0,0,0,0,0,0,0,0
2.201366,7897,32687,37982,0,0,0,0,0,0,0,0,0,0,0,0,0,0
2.220894,7897,32683,37977,0,0,0,0,0,0,0,0,0,0,0,0,0,0
2.222005,7900,32679,37971,0,0,0,0,0,0,0,0,0,0,0,0,0,0
2.241954,7896,32680,37962,0,0,0,0,0,0,0,0,0,0,0,0,0,0
2.242954,7901,32679,37962,0,0,0,0,0,0,0,0,0,0,0,0,0,0
2.260233,7899,32677,37958,0,0,0,0,0,0,0,0,0,0,0,0,0,0
2.261256,7903,32676,37955,0,0,0,0,0,0,0,0,0,0,0,0,0,0
2.281319,7897,32679,37950,0,0,0,0,0,0,0,0,0,0,0,0,0,0
2.282425,7901,32678,37946,0,0,0,0,0,0,0,0,0,0,0,0,0,0
2.301403,7896,32677,37937,0,0,0,0,0,0,0,0,0,0,0,0,0,0
2.302429,7899,32673,37927,0,0,0,0,0,0,0,0,0,0,0,0,0,0
2.311379,7899,32671,37914,0,0,0,0,0,0,0,0,0,0,0,0,0,0
2.330641,7897,32673,37909,0,0,0,0,0,0,0,0,0,0,0,0,0,0
2.331674,7893,32663,37898,0,0,0,0,0,0,0,0,0,0,0,0,0,0
2.350564,7893,32664,37887,0,0,0,0,0,0,0,0,0,0,0,0,0,0
2.351564,7885,32658,37872,0,0,0,0,0,0,0,0,0,0,0,0,0,0
2.371368,7886,32653,37865,0,0,0,0,0,0,0,0,0,0,0,0,0,0
2.372694,7880,32649,37856,0,0,0,0,0,0,0,0,0,0,0,0,0,0
2.390035,7884,32650,37858,0,0,0,0,0,0,0,0,0,0,0,0,0,0
2.392035,7882,32649,37856,0,0,0,0,0,0,0,0,0,0,0,0,0,0
2.409945,7885,32652,37862,0,0,0,0,0,0,0,0,0,0,0,0,0,0
2.41106,7882,32654,37868,0,0,0,0,0,0,0,0,0,0,0,0,0,0
2.429088,7889,32653,37870,0,0,0,0,0,0,0,0,0,0,0,0,0,0
2.431527,7888,32659,37869,0,0,0,0,0,0,0,0,0,0,0,0,0,0
2.450775,7892,32655,37872,0,0,0,0,0,0,0,0,0,0,0,0,0,0
2.451891,7891,32652,37872,0,0,0,0,0,0,0,0,0,0,0,0,0,0
2.470374,7894,32653,37871,0,0,0,0,0,0,0,0,0,0,0,0,0,0
2.471486,7892,32651,37873,0,0,0,0,0,0,0,0,0,0,0,0,0,0
2.480097,7898,32652,37873,0,0,0,0,0,0,0,0,0,0,0,0,0,0
2.501117,7900,32650,37876,0,0,0,0,0,0,0,0,0,0,0,0,0,0
2.502118,7902,32649,37874,0,0,0,0,0,0,0,0,0,0,0,0,0,0
2.520278,7902,32650,37876,0,0,0,0,0,0,0,0,0,0,0,0,0,0
2.521278,7907,32648,37878,0,0,0,0,0,0,0,0,0,0,0,0,0,0
2.540326,7908,32650,37879,0,0,0,0,0,0,0,0,0,0,0,0,0,0
2.541325,7909,32656,37883,0,0,0,0,0,0,0,0,0,0,0,0,0,0
2.561584,7910,32656,37890,0,0,0,0,0,0,0,0,0,0,0,0,0,0
2.562613,7914,32655,37893,0,0,0,0,0,0,0,0,0,0,0,0,0,0
2.572252,7914,32656,37900,0,0,0,0,0,0,0,0,0,0,0,0,0,0
2.589536,7916,32658,37903,0,0,0,0,0,0,0,0,0,0,0,0,0,0
2.59254,7919,32657,37898,0,0,0,0,0,0,0,0,0,0,0,0,0,0
2.611439,7922,32650,37895,0,0,0,0,0,0,0,0,0,0,0,0,0,0
2.612431,7920,32647,37891,0,0,0,0,0,0,0,0,0,0,0,0,0,0
2.631752,7921,32647,37890,0,0,0,0,0,0,0,0,0,0,0,0,0,0
2.632764,7919,32648,37891,0,0,0,0,0,0,0,0,0,0,0,0,0,0
2.651819,7922,32650,37899,0,0,0,0,0,0,0,0,0,0,0,0,0,0
2.652819,7929,32653,37902,0,0,0,0,0,0,0,0,0,0,0,0,0,0
2.669818,7933,32655,37911,0,0,0,0,0,0,0,0,0,0,0,0,0,0
2.67185,7935,32657,37916,0,0,0,0,0,0,0,0,0,0,0,0,0,0
2.689789,7936,32659,37925,0,0,0,0,0,0,0,0,0,0,0,0,0,0
2.69212,7939,32659,37924,0,0,0,0,0,0,0,0,0,0,0,0,0,0
2.711635,7940,32658,37931,0,0,0,0,0,0,0,0,0,0,0,0,0,0
2.712635,7943,32657,37931,0,0,0,0,0,0,0,0,0,0,0,0,0,0
2.731165,7948,32654,37932,0,0,0,0,0,0,0,0,0,0,0,0,0,0
2.732184,7944,32657,37932,0,0,0,0,0,0,0,0,0,0,0,0,0,0
2.740271,7955,32659,37942,0,0,0,0,0,0,0,0,0,0,0,0,0,0
2.76039,7957,32658,37948,0,0,0,0,0,0,0,0,0,0,0,0,0,0
2.76241,7960,32663,37954,0,0,0,0,0,0,0,0,0,0,0,0,0,0
2.781759,7965,32666,37960,0,0,0,0,0,0,0,0,0,0,0,0,0,0
2.783267,7972,32669,37972,0,0,0,0,0,0,0,0,0,0,0,0,0,0
2.800216,7974,32674,37985,0,0,0,0,0,0,0,0,0,0,0,0,0,0
2.801418,7976,32682,37997,0,0,0,0,0,0,0,0,0,0,0,0,0,0
2.822085,7980,32679,38008,0,0,0,0,0,0,0,0,0,0,0,0,0,0
2.823833,7988,32683,38018,0,0,0,0,0,0,0,0,0,0,0,0,0,0
2.840797,7994,32688,38025,0,0,0,0,0,0,0,0,0,0,0,0,0,0
2.841808,7997,32693,38037,0,0,0,0,0,0,0,0,0,0,0,0,0,0
2.860355,8001,32698,38044,0,0,0,0,0,0,0,0,0,0,0,0,0,0
2.861473,8005,32698,38050,0,0,0,0,0,0,0,0,0,0,0,0,0,0
2.881775,8010,32702,38059,0,0,0,0,0,0,0,0,0,0,0,0,0,0
2.882776,8016,32711,38073,0,0,0,0,0,0,0,0,0,0,0,0,0,0
2.901061,8018,32717,38086,0,0,0,0,0,0,0,0,0,0,0,0,0,0
2.902088,8026,32720,38095,0,0,0,0,0,0,0,0,0,0,0,0,0,0
2.919971,8027,32728,38108,0,0,0,0,0,0,0,0,0,0,0,0,0,0
2.922026,8036,32729,38117,0,0,0,0,0,0,0,0,0,0,0,0,0,0
2.941001,8041,32728,38121,0,0,0,0,0,0,0,0,0,0,0,0,0,0
2.94192,8043,32734,38131,0,0,0,0,0,0,0,0,0,0,0,0,0,0
2.961323,8046,32735,38133,0,0,0,0,0,0,0,0,0,0,0,0,0,0
2.962343,8051,32742,38138,0,0,0,0,0,0,0,0,0,0,0,0,0,0
2.970512,8055,32748,38147,0,0,0,0,0,0,0,0,0,0,0,0,0,0
2.991959,8059,32752,38150,0,0,0,0,0,0,0,0,0,0,0,0,0,0
2.993066,8063,32756,38161,0,0,0,0,0,0,0,0,0,0,0,0,0,0
3.00971,8069,32652,38166,0,0,0,0,0,0,0,0,0,0,0,0,0,0
3.011734,8070,32547,38167,0,0,0,0,0,0,0,0,0,0,0,0,0,0
3.029679,8075,32553,38174,0,0,0,0,0,0,0,0,0,0,0,0,0,0
3.031771,8079,32551,38172,0,0,0,0,0,0,0,0,0,0,0,0,0,0
3.049868,8079,32551,38171,0,0,0,0,0,0,0,0,0,0,0,0,0,0
3.051934,8078,32548,38160,0,0,0,0,0,0,0,0,0,0,0,0,0,0
3.069894,8077,32548,38149,0,0,0,0,0,0,0,0,0,0,0,0,0,0
3.071401,8076,32541,38135,0,0,0,0,0,0,0,0,0,0,0,0,0,0
3.091101,8074,32538,38123,0,0,0,0,0,0,0,0,0,0,0,0,0,0
3.092134,8072,32530,38115,0,0,0,0,0,0,0,0,0,0,0,0,0,0
3.109983,8073,32529,38105,0,0,0,0,0,0,0,0,0,0,0,0,0,0
3.111149,8075,32526,38105,0,0,0,0,0,0,0,0,0,0,0,0,0,0
3.130939,8074,32525,38095,0,0,0,0,0,0,0,0,0,0,0,0,0,0
3.131971,8074,32523,38094,0,0,0,0,0,0,0,0,0,0,0,0,0,0
3.14972,8076,32523,38093,0,0,0,0,0,0,0,0,0,0,0,0,0,0
3.151746,8077,32527,38101,0,0,0,0,0,0,0,0,0,0,0,0,0,0
3.170026,8079,32533,38107,0,0,0,0,0,0,0,0,0,0,0,0,0,0
3.171534,8082,32534,38117,0,0,0,0,0,0,0,0,0,0,0,0,0,0
3.190549,8085,32539,38121,0,0,0,0,0,0,0,0,0,0,0,0,0,0
3.191661,8091,32542,38131,0,0,0,0,0,0,0,0,0,0,0,0,0,0
3.201626,8094,32547,38133,0,0,0,0,0,0,0,0,0,0,0,0,0,0
3.220306,8096,32545,38133,0,0,0,0,0,0,0,0,0,0,0,0,0,0
3.221422,8097,32547,38130,0,0,0,0,0,0,0,0,0,0,0,0,0,0
3.241457,8099,32544,38136,0,0,0,0,0,0,0,0,0,0,0,0,0,0
3.242791,8102,32546,38140,0,0,0,0,0,0,0,0,0,0,0,0,0,0
3.261777,8103,32551,38147,0,0,0,0,0,0,0,0,0,0,0,0,0,0
3.262777,8109,32552,38151,0,0,0,0,0,0,0,0,0,0,0,0,0,0
3.280766,8112,32554,38158,0,0,0,0,0,0,0,0,0,0,0,0,0,0
3.281878,8116,32551,38160,0,0,0,0,0,0,0,0,0,0,0,0,0,0
3.300428,8116,32550,38159,0,0,0,0,0,0,0,0,0,0,0,0,0,0
3.301428,8119,32555,38161,0,0,0,0,0,0,0,0,0,0,0,0,0,0
3.321475,8119,32550,38167,0,0,0,0,0,0,0,0,0,0,0,0,0,0
3.322475,8122,32554,38170,0,0,0,0,0,0,0,0,0,0,0,0,0,0
3.34039,8126,32558,38179,0,0,0,0,0,0,0,0,0,0,0,0,0,0
3.34292,8130,32559,38178,0,0,0,0,0,0,0,0,0,0,0,0,0,0
3.360463,8132,32554,38181,0,0,0,0,0,0,0,0,0,0,0,0,0,0
3.361563,8133,32554,38179,0,0,0,0,0,0,0,0,0,0,0,0,0,0
3.379506,8136,32558,38182,0,0,0,0,0,0,0,0,0,0,0,0,0,0
3.38153,8137,32554,38177,0,0,0,0,0,0,0,0,0,0,0,0,0,0
3.402348,8138,32555,38180,0,0,0,0,0,0,0,0,0,0,0,0,0,0
3.403348,8142,32552,38182,0,0,0,0,0,0,0,0,0,0,0,0,0,0
3.419762,8140,32553,38188,0,0,0,0,0,0,0,0,0,0,0,0,0,0
3.421975,8143,32554,38186,0,0,0,0,0,0,0,0,0,0,0,0,0,0
3.431291,8149,32556,38196,0,0,0,0,0,0,0,0,0,0,0,0,0,0
3.433531,8148,32561,38197,0,0,0,0,0,0,0,0,0,0,0,0,0,0
3.450605,8149,32563,38207,0,0,0,0,0,0,0,0,0,0,0,0,0,0
3.472703,8158,32566,38211,0,0,0,0,0,0,0,0,0,0,0,0,0,0
3.474705,8161,32567,38217,0,0,0,0,0,0,0,0,0,0,0,0,0,0
3.49022,8160,32570,38221,0,0,0,0,0,0,0,0,0,0,0,0,0,0
3.491229,8165,32569,38224,0,0,0,0,0,0,0,0,0,0,0,0,0,0
3.510643,8168,32568,38219,0,0,0,0,0,0,0,0,0,0,0,0,0,0
3.511642,8165,32563,38222,0,0,0,0,0,0,0,0,0,0,0,0,0,0
3.531153,8170,32567,38227,0,0,0,0,0,0,0,0,0,0,0,0,0,0
3.532154,8174,32569,38233,0,0,0,0,0,0,0,0,0,0,0,0,0,0
3.551132,8175,32571,38237,0,0,0,0,0,0,0,0,0,0,0,0,0,0
3.552133,8180,32572,38247,0,0,0,0,0,0,0,0,0,0,0,0,0,0
3.570731,8184,32576,38251,0,0,0,0,0,0,0,0,0,0,0,0,0,0
3.571932,8184,32579,38256,0,0,0,0,0,0,0,0,0,0,0,0,0,0
3.591353,8188,32578,38257,0,0,0,0,0,0,0,0,0,0,0,0,0,0
3.59336,8189,32577,38259,0,0,0,0,0,0,0,0,0,0,0,0,0,0
3.609743,8193,32577,38258,0,0,0,0,0,0,0,0,0,0,0,0,0,0
3.611744,8194,32577,38263,0,0,0,0,0,0,0,0,0,0,0,0,0,0
3.630987,8197,32581,38265,0,0,0,0,0,0,0,0,0,0,0,0,0,0
3.632008,8199,32580,38265,0,0,0,0,0,0,0,0,0,0,0,0,0,0
3.651169,8205,32580,38274,0,0,0,0,0,0,0,0,0,0,0,0,0,0
3.65245,8206,32582,38276,0,0,0,0,0,0,0,0,0,0,0,0,0,0
3.6706,8207,32579,38275,0,0,0,0,0,0,0,0,0,0,0,0,0,0
3.6726,8211,32578,38263,0,0,0,0,0,0,0,0,0,0,0,0,0,0
3.682106,8210,32576,38266,0,0,0,0,0,0,0,0,0,0,0,0,0,0
3.699759,8214,32573,38264,0,0,0,0,0,0,0,0,0,0,0,0,0,0
3.701815,8215,32571,38253,0,0,0,0,0,0,0,0,0,0,0,0,0,0
3.72137,8214,32566,38244,0,0,0,0,0,0,0,0,0,0,0,0,0,0
3.722389,8213,32561,38238,0,0,0,0,0,0,0,0,0,0,0,0,0,0
3.740733,8216,32568,38233,0,0,0,0,0,0,0,0,0,0,0,0,0,0
3.741732,8215,32563,38227,0,0,0,0,0,0,0,0,0,0,0,0,0,0
3.760003,8212,32558,38218,0,0,0,0,0,0,0,0,0,0,0,0,0,0
3.761007,8214,32560,38221,0,0,0,0,0,0,0,0,0,0,0,0,0,0
3.781098,8214,32555,38205,0,0,0,0,0,0,0,0,0,0,0,0,0,0
3.782131,8212,32555,38203,0,0,0,0,0,0,0,0,0,0,0,0,0,0
3.800626,8209,32552,38190,0,0,0,0,0,0,0,0,0,0,0,0,0,0
3.801659,8206,32548,38187,0,0,0,0,0,0,0,0,0,0,0,0,0,0
3.820116,8205,32543,38179,0,0,0,0,0,0,0,0,0,0,0,0,0,0
3.821116,8204,32543,38174,0,0,0,0,0,0,0,0,0,0,0,0,0,0
3.841694,8203,32543,38172,0,0,0,0,0,0,0,0,0,0,0,0,0,0
3.842803,8202,32545,38171,0,0,0,0,0,0,0,0,0,0,0,0,0,0
3.861191,8206,32544,38169,0,0,0,0,0,0,0,0,0,0,0,0,0,0
3.862308,8204,32544,38181,0,0,0,0,0,0,0,0,0,0,0,0,0,0
3.880874,8211,32546,38185,0,0,0,0,0,0,0,0,0,0,0,0,0,0
3.881874,8213,32556,38202,0,0,0,0,0,0,0,0,0,0,0,0,0,0
3.899671,8216,32556,38207,0,0,0,0,0,0,0,0,0,0,0,0,0,0
3.90169,8220,32563,38220,0,0,0,0,0,0,0,0,0,0,0,0,0,0
3.920759,8222,32566,38225,0,0,0,0,0,0,0,0,0,0,0,0,0,0
3.921875,8225,32568,38228,0,0,0,0,0,0,0,0,0,0,0,0,0,0
3.940247,8230,32572,38231,0,0,0,0,0,0,0,0,0,0,0,0,0,0
3.941408,8232,32567,38232,0,0,0,0,0,0,0,0,0,0,0,0,0,0
3.949807,8232,32569,38234,0,0,0,0,0,0,0,0,0,0,0,0,0,0
3.970904,8236,32569,38239,0,0,0,0,0,0,0,0,0,0,0,0,0,0
3.972018,8236,32567,38240,0,0,0,0,0,0,0,0,0,0,0,0,0,0
3.990397,8238,32569,38240,0,0,0,0,0,0,0,0,0,0,0,0,0,0
3.991807,8235,32565,38234,0,0,0,0,0,0,0,0,0,0,0,0,0,0
4.009542,8239,32565,38236,0,0,0,0,0,0,0,0,0,0,0,0,0,0
4.011543,8240,32564,38241,0,0,0,0,0,0,0,0,0,0,0,0,0,0
4.03159,8246,32566,38246,0,0,0,0,0,0,0,0,0,0,0,0,0,0
4.03259,8245,32568,38250,0,0,0,0,0,0,0,0,0,0,0,0,0,0
4.049658,8252,32576,38262,0,0,0,0,0,0,0,0,0,0,0,0,0,0
4.051838,8257,32577,38267,0,0,0,0,0,0,0,0,0,0,0,0,0,0
4.070061,8258,32578,38277,0,0,0,0,0,0,0,0,0,0,0,0,0,0
4.072264,8260,32579,38271,0,0,0,0,0,0,0,0,0,0,0,0,0,0
4.091982,8262,32575,38272,0,0,0,0,0,0,0,0,0,0,0,0,0,0
4.093085,8263,32573,38262,0,0,0,0,0,0,0,0,0,0,0,0,0,0
4.10967,8262,32572,38266,0,0,0,0,0,0,0,0,0,0,0,0,0,0
4.111766,8268,32571,38260,0,0,0,0,0,0,0,0,0,0,0,0,0,0
4.130982,8267,32573,38274,0,0,0,0,0,0,0,0,0,0,0,0,0,0
4.131999,8268,32576,38278,0,0,0,0,0,0,0,0,0,0,0,0,0,0
4.149579,8272,32580,38280,0,0,0,0,0,0,0,0,0,0,0,0,0,0
4.151622,8275,32575,38283,0,0,0,0,0,0,0,0,0,0,0,0,0,0
4.171756,8277,32579,38288,0,0,0,0,0,0,0,0,0,0,0,0,0,0
4.173786,8280,32580,38288,0,0,0,0,0,0,0,0,0,0,0,0,0,0
4.181774,8281,32579,38293,0,0,0,0,0,0,0,0,0,0,0,0,0,0
4.186139,8284,32579,38294,0,0,0,0,0,0,0,0,0,0,0,0,0,0
4.200409,8286,32578,38295,0,0,0,0,0,0,0,0,0,0,0,0,0,0
4.220634,8287,32578,38289,0,0,0,0,0,0,0,0,0,0,0,0,0,0
4.221634,8287,32576,38292,0,0,0,0,0,0,0,0,0,0,0,0,0,0
4.241076,8290,32577,38292,0,0,0,0,0,0,0,0,0,0,0,0,0,0
4.242083,8294,32576,38294,0,0,0,0,0,0,0,0,0,0,0,0,0,0
4.261274,8294,32579,38300,0,0,0,0,0,0,0,0,0,0,0,0,0,0
4.262296,8295,32578,38300,0,0,0,0,0,0,0,0,0,0,0,0,0,0
4.280494,8301,32581,38306,0,0,0,0,0,0,0,0,0,0,0,0,0,0
4.281495,8301,32583,38315,0,0,0,0,0,0,0,0,0,0,0,0,0,0
4.300494,8308,32589,38323,0,0,0,0,0,0,0,0,0,0,0,0,0,0
4.301495,8308,32588,38329,0,0,0,0,0,0,0,0,0,0,0,0,0,0
4.321091,8310,32592,38330,0,0,0,0,0,0,0,0,0,0,0,0,0,0
4.322005,8314,32590,38332,0,0,0,0,0,0,0,0,0,0,0,0,0,0
4.340547,8315,32592,38330,0,0,0,0,0,0,0,0,0,0,0,0,0,0
4.341547,8319,32592,38336,0,0,0,0,0,0,0,0,0,0,0,0,0,0
4.360951,8319,32590,38339,0,0,0,0,0,0,0,0,0,0,0,0,0,0
4.362066,8322,32591,38342,0,0,0,0,0,0,0,0,0,0,0,0,0,0
4.38187,8322,32595,38347,0,0,0,0,0,0,0,0,0,0,0,0,0,0
4.382994,8329,32596,38354,0,0,0,0,0,0,0,0,0,0,0,0,0,0
4.400994,8331,32603,38360,0,0,0,0,0,0,0,0,0,0,0,0,0,0
4.401994,8334,32602,38365,0,0,0,0,0,0,0,0,0,0,0,0,0,0
4.420642,8331,32603,38364,0,0,0,0,0,0,0,0,0,0,0,0,0,0
4.421666,8336,32599,38360,0,0,0,0,0,0,0,0,0,0,0,0,0,0
4.429542,8338,32597,38349,0,0,0,0,0,0,0,0,0,0,0,0,0,0
4.452142,8338,32589,38341,0,0,0,0,0,0,0,0,0,0,0,0,0,0
4.454223,8339,32582,38331,0,0,0,0,0,0,0,0,0,0,0,0,0,0
4.469818,8339,32583,38328,0,0,0,0,0,0,0,0,0,0,0,0,0,0
4.472862,8339,32588,38325,0,0,0,0,0,0,0,0,0,0,0,0,0,0
4.490556,8341,32584,38326,0,0,0,0,0,0,0,0,0,0,0,0,0,0
4.492557,8342,32592,38332,0,0,0,0,0,0,0,0,0,0,0,0,0,0
4.509556,8348,32597,38340,0,0,0,0,0,0,0,0,0,0,0,0,0,0
4.511558,8350,32600,38342,0,0,0,0,0,0,0,0,0,0,0,0,0,0
4.531072,8354,32601,38346,0,0,0,0,0,0,0,0,0,0,0,0,0,0
4.532072,8350,32604,38342,0,0,0,0,0,0,0,0,0,0,0,0,0,0
4.549939,8352,32595,38339,0,0,0,0,0,0,0,0,0,0,0,0,0,0
4.552022,8351,32596,38330,0,0,0,0,0,0,0,0,0,0,0,0,0,0
4.569234,8351,32589,38329,0,0,0,0,0,0,0,0,0,0,0,0,0,0
4.571686,8351,32592,38324,0,0,0,0,0,0,0,0,0,0,0,0,0,0
4.590134,8350,32589,38327,0,0,0,0,0,0,0,0,0,0,0,0,0,0
4.591641,8352,32592,38321,0,0,0,0,0,0,0,0,0,0,0,0,0,0
4.609843,8352,32586,38321,0,0,0,0,0,0,0,0,0,0,0,0,0,0
4.611845,8352,32591,38320,0,0,0,0,0,0,0,0,0,0,0,0,0,0
4.630351,8354,32585,38320,0,0,0,0,0,0,0,0,0,0,0,0,0,0
4.632352,8354,32588,38319,0,0,0,0,0,0,0,0,0,0,0,0,0,0
4.650187,8355,32587,38329,0,0,0,0,0,0,0,0,0,0,0,0,0,0
4.651251,8360,32588,38332,0,0,0,0,0,0,0,0,0,0,0,0,0,0
4.659472,8362,32590,38338,0,0,0,0,0,0,0,0,0,0,0,0,0,0
4.680823,8361,32596,38344,0,0,0,0,0,0,0,0,0,0,0,0,0,0
4.681825,8369,32593,38345,0,0,0,0,0,0,0,0,0,0,0,0,0,0
4.700146,8367,32601,38352,0,0,0,0,0,0,0,0,0,0,0,0,0,0
4.701161,8368,32598,38357,0,0,0,0,0,0,0,0,0,0,0,0,0,0
4.721694,8372,32599,38358,0,0,0,0,0,0,0,0,0,0,0,0,0,0
4.723716,8371,32599,38358,0,0,0,0,0,0,0,0,0,0,0,0,0,0
4.741306,8375,32599,38364,0,0,0,0,0,0,0,0,0,0,0,0,0,0
4.742463,8376,32598,38360,0,0,0,0,0,0,0,0,0,0,0,0,0,0
4.76209,8377,32599,38361,0,0,0,0,0,0,0,0,0,0,0,0,0,0
4.763092,8382,32599,38368,0,0,0,0,0,0,0,0,0,0,0,0,0,0
4.780026,8383,32601,38372,0,0,0,0,0,0,0,0,0,0,0,0,0,0
4.781137,8388,32603,38370,0,0,0,0,0,0,0,0,0,0,0,0,0,0
4.801405,8387,32602,38378,0,0,0,0,0,0,0,0,0,0,0,0,0,0
4.803071,8389,32603,38377,0,0,0,0,0,0,0,0,0,0,0,0,0,0
4.822361,8389,32602,38373,0,0,0,0,0,0,0,0,0,0,0,0,0,0
4.824362,8391,32601,38373,0,0,0,0,0,0,0,0,0,0,0,0,0,0
4.840868,8388,32600,38370,0,0,0,0,0,0,0,0,0,0,0,0,0,0
4.841867,8392,32599,38368,0,0,0,0,0,0,0,0,0,0,0,0,0,0
4.859868,8392,32594,38363,0,0,0,0,0,0,0,0,0,0,0,0,0,0
4.861868,8395,32594,38362,0,0,0,0,0,0,0,0,0,0,0,0,0,0
4.882288,8394,32590,38361,0,0,0,0,0,0,0,0,0,0,0,0,0,0
4.883288,8396,32589,38357,0,0,0,0,0,0,0,0,0,0,0,0,0,0
4.892288,8395,32587,38352,0,0,0,0,0,0,0,0,0,0,0,0,0,0
4.910288,8397,32588,38356,0,0,0,0,0,0,0,0,0,0,0,0,0,0
4.912289,8396,32589,38355,0,0,0,0,0,0,0,0,0,0,0,0,0,0
4.929967,8397,32589,38358,0,0,0,0,0,0,0,0,0,0,0,0,0,0
4.932035,8401,32586,38358,0,0,0,0,0,0,0,0,0,0,0,0,0,0
4.951765,8400,32588,38363,0,0,0,0,0,0,0,0,0,0,0,0,0,0
4.953815,8404,32589,38366,0,0,0,0,0,0,0,0,0,0,0,0,0,0
4.971559,8405,32591,38371,0,0,0,0,0,0,0,0,0,0,0,0,0,0
4.972669,8405,32593,38371,0,0,0,0,0,0,0,0,0,0,0,0,0,0
4.990945,8407,32591,38376,0,0,0,0,0,0,0,0,0,0,0,0,0,0
4.991943,8411,32591,38372,0,0,0,0,0,0,0,0,0,0,0,0,0,0
5.011804,8409,32593,38375,0,0,0,0,0,0,0,0,0,0,0,0,0,0
5.012805,8411,32594,38380,0,0,0,0,0,0,0,0,0,0,0,0,0,0
5.029635,8410,32593,38378,0,0,0,0,0,0,0,0,0,0,0,0,0,0
5.031659,8413,32587,38379,0,0,0,0,0,0,0,0,0,0,0,0,0,0
5.050515,8414,32594,38385,0,0,0,0,0,0,0,0,0,0,0,0,0,0
5.051515,8415,32590,38379,0,0,0,0,0,0,0,0,0,0,0,0,0,0
5.072326,8414,32592,38381,0,0,0,0,0,0,0,0,0,0,0,0,0,0
5.07335,8414,32587,38377,0,0,0,0,0,0,0,0,0,0,0,0,0,0
5.091125,8417,32591,38385,0,0,0,0,0,0,0,0,0,0,0,0,0,0
5.092153,8419,32591,38388,0,0,0,0,0,0,0,0,0,0,0,0,0,0
5.111184,8418,32596,38395,0,0,0,0,0,0,0,0,0,0,0,0,0,0
5.112206,8427,32597,38396,0,0,0,0,0,0,0,0,0,0,0,0,0,0
5.119901,8425,32601,38394,0,0,0,0,0,0,0,0,0,0,0,0,0,0
5.12101,8427,32592,38396,0,0,0,0,0,0,0,0,0,0,0,0,0,0
5.139536,8424,32597,38398,0,0,0,0,0,0,0,0,0,0,0,0,0,0
5.159586,8427,32590,38393,0,0,0,0,0,0,0,0,0,0,0,0,0,0
5.161617,8428,32596,38391,0,0,0,0,0,0,0,0,0,0,0,0,0,0
5.180649,8427,32596,38388,0,0,0,0,0,0,0,0,0,0,0,0,0,0
5.181758,8424,32588,38382,0,0,0,0,0,0,0,0,0,0,0,0,0,0
5.19987,8427,32585,38374,0,0,0,0,0,0,0,0,0,0,0,0,0,0
5.200979,8423,32586,38373,0,0,0,0,0,0,0,0,0,0,0,0,0,0
5.22148,8427,32581,38363,0,0,0,0,0,0,0,0,0,0,0,0,0,0
5.222589,8426,32584,38363,0,0,0,0,0,0,0,0,0,0,0,0,0,0
5.240517,8428,32581,38361,0,0,0,0,0,0,0,0,0,0,0,0,0,0
5.241523,8427,32584,38364,0,0,0,0,0,0,0,0,0,0,0,0,0,0
5.261633,8429,32578,38362,0,0,0,0,0,0,0,0,0,0,0,0,0,0
5.262661,8429,32589,38361,0,0,0,0,0,0,0,0,0,0,0,0,0,0
5.280093,8428,32586,38356,0,0,0,0,0,0,0,0,0,0,0,0,0,0
5.281094,8425,32586,38353,0,0,0,0,0,0,0,0,0,0,0,0,0,0
5.299985,8426,32577,38344,0,0,0,0,0,0,0,0,0,0,0,0,0,0
5.301261,8425,32580,38337,0,0,0,0,0,0,0,0,0,0,0,0,0,0
5.321903,8423,32570,38331,0,0,0,0,0,0,0,0,0,0,0,0,0,0
5.322934,8418,32573,38324,0,0,0,0,0,0,0,0,0,0,0,0,0,0
5.339619,8418,32564,38320,0,0,0,0,0,0,0,0,0,0,0,0,0,0
5.341625,8420,32565,38318,0,0,0,0,0,0,0,0,0,0,0,0,0,0
5.361475,8419,32560,38312,0,0,0,0,0,0,0,0,0,0,0,0,0,0
5.362497,8415,32563,38313,0,0,0,0,0,0,0,0,0,0,0,0,0,0
5.370194,8415,32554,38309,0,0,0,0,0,0,0,0,0,0,0,0,0,0
5.391906,8414,32564,38313,0,0,0,0,0,0,0,0,0,0,0,0,0,0
5.392926,8413,32560,38314,0,0,0,0,0,0,0,0,0,0,0,0,0,0
5.410114,8416,32560,38317,0,0,0,0,0,0,0,0,0,0,0,0,0,0
5.412035,8420,32559,38319,0,0,0,0,0,0,0,0,0,0,0,0,0,0
5.430675,8420,32571,38329,0,0,0,0,0,0,0,0,0,0,0,0,0,0
5.431638,8421,32565,38333,0,0,0,0,0,0,0,0,0,0,0,0,0,0
5.452358,8425,32570,38336,0,0,0,0,0,0,0,0,0,0,0,0,0,0
5.454379,8426,32563,38333,0,0,0,0,0,0,0,0,0,0,0,0,0,0
5.470088,8428,32568,38337,0,0,0,0,0,0,0,0,0,0,0,0,0,0
5.472114,8428,32563,38335,0,0,0,0,0,0,0,0,0,0,0,0,0,0
5.489998,8428,32568,38339,0,0,0,0,0,0,0,0,0,0,0,0,0,0
5.491998,8429,32566,38338,0,0,0,0,0,0,0,0,0,0,0,0,0,0
5.510997,8432,32567,38345,0,0,0,0,0,0,0,0,0,0,0,0,0,0
5.511998,8435,32574,38352,0,0,0,0,0,0,0,0,0,0,0,0,0,0
5.530506,8437,32576,38358,0,0,0,0,0,0,0,0,0,0,0,0,0,0
5.531506,8438,32573,38364,0,0,0,0,0,0,0,0,0,0,0,0,0,0
5.55001,8440,32582,38366,0,0,0,0,0,0,0,0,0,0,0,0,0,0
5.557149,8440,32578,38366,0,0,0,0,0,0,0,0,0,0,0,0,0,0
5.569607,8441,32583,38374,0,0,0,0,0,0,0,0,0,0,0,0,0,0
5.571678,8445,32582,38375,0,0,0,0,0,0,0,0,0,0,0,0,0,0
5.591508,8443,32584,38380,0,0,0,0,0,0,0,0,0,0,0,0,0,0
5.592508,8446,32579,38374,0,0,0,0,0,0,0,0,0,0,0,0,0,0
5.601901,8448,32583,38376,0,0,0,0,0,0,0,0,0,0,0,0,0,0
5.620291,8448,32580,38374,0,0,0,0,0,0,0,0,0,0,0,0,0,0
5.621569,8446,32580,38373,0,0,0,0,0,0,0,0,0,0,0,0,0,0
5.640592,8453,32579,38377,0,0,0,0,0,0,0,0,0,0,0,0,0,0
5.641592,8453,32582,38377,0,0,0,0,0,0,0,0,0,0,0,0,0,0
5.66006,8455,32578,38382,0,0,0,0,0,0,0,0,0,0,0,0,0,0
5.662105,8453,32579,38383,0,0,0,0,0,0,0,0,0,0,0,0,0,0
5.681065,8460,32577,38382,0,0,0,0,0,0,0,0,0,0,0,0,0,0
5.682097,8455,32583,38385,0,0,0,0,0,0,0,0,0,0,0,0,0,0
5.701021,8459,32578,38384,0,0,0,0,0,0,0,0,0,0,0,0,0,0
5.702042,8460,32576,38386,0,0,0,0,0,0,0,0,0,0,0,0,0,0
5.720199,8462,32577,38387,0,0,0,0,0,0,0,0,0,0,0,0,0,0
5.721375,8461,32575,38384,0,0,0,0,0,0,0,0,0,0,0,0,0,0
5.74037,8467,32575,38385,0,0,0,0,0,0,0,0,0,0,0,0,0,0
5.741371,8465,32576,38388,0,0,0,0,0,0,0,0,0,0,0,0,0,0
5.760835,8465,32573,38385,0,0,0,0,0,0,0,0,0,0,0,0,0,0
5.761944,8466,32575,38387,0,0,0,0,0,0,0,0,0,0,0,0,0,0
5.780421,8470,32575,38387,0,0,0,0,0,0,0,0,0,0,0,0,0,0
5.782516,8469,32574,38386,0,0,0,0,0,0,0,0,0,0,0,0,0,0
5.799983,8472,32569,38390,0,0,0,0,0,0,0,0,0,0,0,0,0,0
5.801983,8471,32578,38392,0,0,0,0,0,0,0,0,0,0,0,0,0,0
5.820502,8476,32577,38400,0,0,0,0,0,0,0,0,0,0,0,0,0,0
5.821612,8478,32576,38405,0,0,0,0,0,0,0,0,0,0,0,0,0,0
5.830154,8479,32582,38404,0,0,0,0,0,0,0,0,0,0,0,0,0,0
5.849697,8476,32586,38408,0,0,0,0,0,0,0,0,0,0,0,0,0,0
5.851774,8482,32582,38412,0,0,0,0,0,0,0,0,0,0,0,0,0,0
5.871487,8479,32580,38411,0,0,0,0,0,0,0,0,0,0,0,0,0,0
5.872757,8482,32579,38406,0,0,0,0,0,0,0,0,0,0,0,0,0,0
5.89068,8479,32579,38407,0,0,0,0,0,0,0,0,0,0,0,0,0,0
5.891683,8485,32572,38400,0,0,0,0,0,0,0,0,0,0,0,0,0,0
5.910312,8479,32572,38399,0,0,0,0,0,0,0,0,0,0,0,0,0,0
5.911312,8482,32575,38396,0,0,0,0,0,0,0,0,0,0,0,0,0,0
5.930655,8479,32574,38397,0,0,0,0,0,0,0,0,0,0,0,0,0,0
5.931715,8483,32568,38398,0,0,0,0,0,0,0,0,0,0,0,0,0,0
5.950274,8483,32573,38397,0,0,0,0,0,0,0,0,0,0,0,0,0,0
5.951278,8487,32578,38398,0,0,0,0,0,0,0,0,0,0,0,0,0,0
5.970783,8482,32575,38402,0,0,0,0,0,0,0,0,0,0,0,0,0,0
5.971788,8489,32574,38401,0,0,0,0,0,0,0,0,0,0,0,0,0,0
5.991654,8485,32579,38400,0,0,0,0,0,0,0,0,0,0,0,0,0,0
5.992654,8488,32574,38391,0,0,0,0,0,0,0,0,0,0,0,0,0,0
6.009577,8487,32574,38384,0,0,0,0,0,0,0,0,0,0,0,0,0,0
6.01164,8487,32571,38385,0,0,0,0,0,0,0,0,0,0,0,0,0,0
6.031068,8483,32570,38379,0,0,0,0,0,0,0,0,0,0,0,0,0,0
6.033068,8487,32562,38373,0,0,0,0,0,0,0,0,0,0,0,0,0,0
6.050943,8483,32566,38374,0,0,0,0,0,0,0,0,0,0,0,0,0,0
6.052052,8489,32560,38372,0,0,0,0,0,0,0,0,0,0,0,0,0,0
6.061481,8485,32565,38370,0,0,0,0,0,0,0,0,0,0,0,0,0,0
6.063481,8488,32566,38370,0,0,0,0,0,0,0,0,0,0,0,0,0,0
6.081871,8486,32565,38369,0,0,0,0,0,0,0,0,0,0,0,0,0,0
6.100394,8491,32564,38375,0,0,0,0,0,0,0,0,0,0,0,0,0,0
6.101398,8490,32570,38377,0,0,0,0,0,0,0,0,0,0,0,0,0,0
6.120395,8488,32565,38374,0,0,0,0,0,0,0,0,0,0,0,0,0,0
6.121499,8492,32563,38377,0,0,0,0,0,0,0,0,0,0,0,0,0,0
6.139797,8491,32564,38380,0,0,0,0,0,0,0,0,0,0,0,0,0,0
6.140949,8494,32566,38385,0,0,0,0,0,0,0,0,0,0,0,0,0,0
6.161003,8496,32573,38390,0,0,0,0,0,0,0,0,0,0,0,0,0,0
6.162027,8497,32571,38397,0,0,0,0,0,0,0,0,0,0,0,0,0,0
6.180825,8499,32576,38400,0,0,0,0,0,0,0,0,0,0,0,0,0,0
6.182331,8498,32572,38399,0,0,0,0,0,0,0,0,0,0,0,0,0,0
6.199509,8500,32574,38400,0,0,0,0,0,0,0,0,0,0,0,0,0,0
6.201698,8501,32572,38397,0,0,0,0,0,0,0,0,0,0,0,0,0,0
6.220794,8500,32570,38397,0,0,0,0,0,0,0,0,0,0,0,0,0,0
6.221814,8505,32569,38398,0,0,0,0,0,0,0,0,0,0,0,0,0,0
6.239488,8505,32574,38406,0,0,0,0,0,0,0,0,0,0,0,0,0,0
6.241946,8508,32576,38411,0,0,0,0,0,0,0,0,0,0,0,0,0,0
6.260812,8509,32577,38412,0,0,0,0,0,0,0,0,0,0,0,0,0,0
6.261922,8512,32580,38419,0,0,0,0,0,0,0,0,0,0,0,0,0,0
6.279809,8511,32578,38419,0,0,0,0,0,0,0,0,0,0,0,0,0,0
6.281809,8515,32578,38422,0,0,0,0,0,0,0,0,0,0,0,0,0,0
6.300316,8513,32578,38424,0,0,0,0,0,0,0,0,0,0,0,0,0,0
6.302316,8515,32578,38422,0,0,0,0,0,0,0,0,0,0,0,0,0,0
6.311316,8514,32581,38419,0,0,0,0,0,0,0,0,0,0,0,0,0,0
6.33171,8519,32576,38421,0,0,0,0,0,0,0,0,0,0,0,0,0,0
6.33271,8514,32577,38418,0,0,0,0,0,0,0,0,0,0,0,0,0,0
6.349764,8519,32576,38421,0,0,0,0,0,0,0,0,0,0,0,0,0,0
6.351813,8515,32575,38419,0,0,0,0,0,0,0,0,0,0,0,0,0,0
6.371795,8519,32576,38421,0,0,0,0,0,0,0,0,0,0,0,0,0,0
6.372817,8520,32574,38418,0,0,0,0,0,0,0,0,0,0,0,0,0,0
6.391991,8522,32577,38419,0,0,0,0,0,0,0,0,0,0,0,0,0,0
6.393043,8523,32577,38422,0,0,0,0,0,0,0,0,0,0,0,0,0,0
6.410951,8525,32577,38427,0,0,0,0,0,0,0,0,0,0,0,0,0,0
6.41207,8524,32583,38431,0,0,0,0,0,0,0,0,0,0,0,0,0,0
6.430191,8527,32581,38434,0,0,0,0,0,0,0,0,0,0,0,0,0,0
6.431199,8530,32583,38438,0,0,0,0,0,0,0,0,0,0,0,0,0,0
6.450469,8530,32583,38444,0,0,0,0,0,0,0,0,0,0,0,0,0,0
6.451643,8533,32584,38445,0,0,0,0,0,0,0,0,0,0,0,0,0,0
6.471218,8528,32584,38452,0,0,0,0,0,0,0,0,0,0,0,0,0,0
6.472322,8534,32587,38453,0,0,0,0,0,0,0,0,0,0,0,0,0,0
6.490328,8537,32586,38455,0,0,0,0,0,0,0,0,0,0,0,0,0,0
6.491348,8536,32590,38452,0,0,0,0,0,0,0,0,0,0,0,0,0,0
6.510315,8537,32585,38455,0,0,0,0,0,0,0,0,0,0,0,0,0,0
6.511423,8536,32585,38450,0,0,0,0,0,0,0,0,0,0,0,0,0,0
6.530323,8539,32580,38447,0,0,0,0,0,0,0,0,0,0,0,0,0,0
6.531323,8540,32575,38439,0,0,0,0,0,0,0,0,0,0,0,0,0,0
6.539902,8540,32571,38435,0,0,0,0,0,0,0,0,0,0,0,0,0,0
6.559692,8535,32574,38438,0,0,0,0,0,0,0,0,0,0,0,0,0,0
6.561717,8539,32573,38434,0,0,0,0,0,0,0,0,0,0,0,0,0,0
6.580801,8543,32572,38437,0,0,0,0,0,0,0,0,0,0,0,0,0,0
6.581829,8542,32579,38439,0,0,0,0,0,0,0,0,0,0,0,0,0,0
6.602265,8539,32572,38441,0,0,0,0,0,0,0,0,0,0,0,0,0,0
6.603285,8544,32575,38438,0,0,0,0,0,0,0,0,0,0,0,0,0,0
6.619622,8539,32570,38435,0,0,0,0,0,0,0,0,0,0,0,0,0,0
6.621666,8544,32569,38429,0,0,0,0,0,0,0,0,0,0,0,0,0,0
6.639714,8538,32565,38423,0,0,0,0,0,0,0,0,0,0,0,0,0,0
6.641825,8539,32560,38416,0,0,0,0,0,0,0,0,0,0,0,0,0,0
6.659558,8537,32556,38408,0,0,0,0,0,0,0,0,0,0,0,0,0,0
6.661608,8538,32555,38405,0,0,0,0,0,0,0,0,0,0,0,0,0,0
6.680395,8533,32553,38404,0,0,0,0,0,0,0,0,0,0,0,0,0,0
6.681442,8539,32556,38403,0,0,0,0,0,0,0,0,0,0,0,0,0,0
6.701559,8538,32557,38399,0,0,0,0,0,0,0,0,0,0,0,0,0,0
6.70255,8541,32559,38402,0,0,0,0,0,0,0,0,0,0,0,0,0,0
6.719551,8538,32559,38406,0,0,0,0,0,0,0,0,0,0,0,0,0,0
6.721551,8542,32562,38408,0,0,0,0,0,0,0,0,0,0,0,0,0,0
6.739666,8538,32558,38403,0,0,0,0,0,0,0,0,0,0,0,0,0,0
6.741879,8544,32560,38397,0,0,0,0,0,0,0,0,0,0,0,0,0,0
6.760592,8540,32554,38389,0,0,0,0,0,0,0,0,0,0,0,0,0,0
6.761763,8538,32552,38381,0,0,0,0,0,0,0,0,0,0,0,0,0,0
6.769899,8530,32548,38371,0,0,0,0,0,0,0,0,0,0,0,0,0,0
6.791955,8537,32549,38371,0,0,0,0,0,0,0,0,0,0,0,0,0,0
6.792956,8532,32549,38368,0,0,0,0,0,0,0,0,0,0,0,0,0,0
6.810955,8536,32549,38379,0,0,0,0,0,0,0,0,0,0,0,0,0,0
6.812342,8530,32550,38375,0,0,0,0,0,0,0,0,0,0,0,0,0,0
6.830041,8536,32552,38377,0,0,0,0,0,0,0,0,0,0,0,0,0,0
6.832041,8530,32552,38384,0,0,0,0,0,0,0,0,0,0,0,0,0,0
6.852041,8538,32556,38384,0,0,0,0,0,0,0,0,0,0,0,0,0,0
6.853041,8537,32555,38389,0,0,0,0,0,0,0,0,0,0,0,0,0,0
6.870875,8541,32558,38394,0,0,0,0,0,0,0,0,0,0,0,0,0,0
6.871875,8540,32560,38407,0,0,0,0,0,0,0,0,0,0,0,0,0,0
6.889645,8545,32564,38412,0,0,0,0,0,0,0,0,0,0,0,0,0,0
6.891645,8545,32563,38414,0,0,0,0,0,0,0,0,0,0,0,0,0,0
6.912207,8550,32565,38416,0,0,0,0,0,0,0,0,0,0,0,0,0,0
6.914227,8549,32563,38417,0,0,0,0,0,0,0,0,0,0,0,0,0,0
6.932358,8553,32566,38415,0,0,0,0,0,0,0,0,0,0,0,0,0,0
6.933393,8547,32558,38412,0,0,0,0,0,0,0,0,0,0,0,0,0,0
6.950139,8554,32563,38413,0,0,0,0,0,0,0,0,0,0,0,0,0,0
6.951206,8554,32556,38411,0,0,0,0,0,0,0,0,0,0,0,0,0,0
6.969652,8554,32564,38417,0,0,0,0,0,0,0,0,0,0,0,0,0,0
6.971755,8552,32563,38423,0,0,0,0,0,0,0,0,0,0,0,0,0,0
6.990198,8562,32568,38434,0,0,0,0,0,0,0,0,0,0,0,0,0,0
6.991238,8560,32571,38437,0,0,0,0,0,0,0,0,0,0,0,0,0,0
6.999636,8564,32574,38444,0,0,0,0,0,0,0,0,0,0,0,0,0,0
7.001636,8567,32576,38448,0,0,0,0,0,0,0,0,0,0,0,0,0,0
7.019815,8570,32577,38453,0,0,0,0,0,0,0,0,0,0,0,0,0,0
7.039277,8567,32572,38451,0,0,0,0,0,0,0,0,0,0,0,0,0,0
7.041549,8567,32572,38450,0,0,0,0,0,0,0,0,0,0,0,0,0,0
7.059486,8569,32569,38449,0,0,0,0,0,0,0,0,0,0,0,0,0,0
7.061918,8573,32569,38446,0,0,0,0,0,0,0,0,0,0,0,0,0,0
7.082228,8570,32566,38438,0,0,0,0,0,0,0,0,0,0,0,0,0,0
7.083257,8568,32563,38438,0,0,0,0,0,0,0,0,0,0,0,0,0,0
7.099838,8571,32564,38440,0,0,0,0,0,0,0,0,0,0,0,0,0,0
7.101839,8573,32566,38440,0,0,0,0,0,0,0,0,0,0,0,0,0,0
7.120149,8571,32565,38441,0,0,0,0,0,0,0,0,0,0,0,0,0,0
7.121576,8576,32566,38443,0,0,0,0,0,0,0,0,0,0,0,0,0,0
7.14096,8574,32566,38446,0,0,0,0,0,0,0,0,0,0,0,0,0,0
7.141994,8576,32569,38449,0,0,0,0,0,0,0,0,0,0,0,0,0,0
7.162146,8577,32566,38446,0,0,0,0,0,0,0,0,0,0,0,0,0,0
7.163146,8577,32567,38448,0,0,0,0,0,0,0,0,0,0,0,0,0,0
7.18156,8576,32564,38447,0,0,0,0,0,0,0,0,0,0,0,0,0,0
7.182665,8579,32565,38444,0,0,0,0,0,0,0,0,0,0,0,0,0,0
7.199805,8578,32566,38446,0,0,0,0,0,0,0,0,0,0,0,0,0,0
7.20094,8576,32563,38444,0,0,0,0,0,0,0,0,0,0,0,0,0,0
7.22078,8578,32568,38445,0,0,0,0,0,0,0,0,0,0,0,0,0,0
7.221814,8585,32566,38446,0,0,0,0,0,0,0,0,0,0,0,0,0,0
7.241339,8581,32564,38447,0,0,0,0,0,0,0,0,0,0,0,0,0,0
7.242529,8583,32564,38446,0,0,0,0,0,0,0,0,0,0,0,0,0,0
7.249821,8583,32560,38443,0,0,0,0,0,0,0,0,0,0,0,0,0,0
7.27191,8584,32562,38440,0,0,0,0,0,0,0,0,0,0,0,0,0,0
7.272935,8583,32563,38439,0,0,0,0,0,0,0,0,0,0,0,0,0,0
7.290372,8587,32559,38441,0,0,0,0,0,0,0,0,0,0,0,0,0,0
7.292412,8583,32561,38439,0,0,0,0,0,0,0,0,0,0,0,0,0,0
7.309694,8587,32559,38442,0,0,0,0,0,0,0,0,0,0,0,0,0,0
7.311106,8586,32562,38444,0,0,0,0,0,0,0,0,0,0,0,0,0,0
7.330374,8586,32561,38446,0,0,0,0,0,0,0,0,0,0,0,0,0,0
7.331579,8589,32561,38449,0,0,0,0,0,0,0,0,0,0,0,0,0,0
7.349912,8589,32564,38449,0,0,0,0,0,0,0,0,0,0,0,0,0,0
7.351912,8591,32563,38453,0,0,0,0,0,0,0,0,0,0,0,0,0,0
7.370212,8589,32560,38453,0,0,0,0,0,0,0,0,0,0,0,0,0,0
7.371955,8592,32560,38448,0,0,0,0,0,0,0,0,0,0,0,0,0,0
7.390448,8591,32557,38444,0,0,0,0,0,0,0,0,0,0,0,0,0,0
7.391448,8593,32556,38442,0,0,0,0,0,0,0,0,0,0,0,0,0,0
7.41048,8592,32556,38442,0,0,0,0,0,0,0,0,0,0,0,0,0,0
7.411591,8595,32558,38440,0,0,0,0,0,0,0,0,0,0,0,0,0,0
7.432351,8593,32556,38436,0,0,0,0,0,0,0,0,0,0,0,0,0,0
7.43345,8593,32555,38430,0,0,0,0,0,0,0,0,0,0,0,0,0,0
7.450885,8589,32552,38422,0,0,0,0,0,0,0,0,0,0,0,0,0,0
7.451885,8590,32552,38418,0,0,0,0,0,0,0,0,0,0,0,0,0,0
7.470675,8590,32549,38416,0,0,0,0,0,0,0,0,0,0,0,0,0,0
7.471689,8589,32550,38415,0,0,0,0,0,0,0,0,0,0,0,0,0,0
7.480997,8589,32552,38415,0,0,0,0,0,0,0,0,0,0,0,0,0,0
7.500609,8589,32554,38416,0,0,0,0,0,0,0,0,0,0,0,0,0,0
7.501647,8588,32557,38421,0,0,0,0,0,0,0,0,0,0,0,0,0,0
7.520442,8588,32554,38414,0,0,0,0,0,0,0,0,0,0,0,0,0,0
7.521441,8588,32551,38411,0,0,0,0,0,0,0,0,0,0,0,0,0,0
7.539512,8588,32549,38399,0,0,0,0,0,0,0,0,0,0,0,0,0,0
7.541714,8584,32545,38393,0,0,0,0,0,0,0,0,0,0,0,0,0,0
7.560111,8583,32543,38390,0,0,0,0,0,0,0,0,0,0,0,0,0,0
7.56111,8582,32544,38389,0,0,0,0,0,0,0,0,0,0,0,0,0,0
7.582268,8584,32541,38393,0,0,0,0,0,0,0,0,0,0,0,0,0,0
7.58329,8589,32543,38395,0,0,0,0,0,0,0,0,0,0,0,0,0,0
7.600542,8585,32548,38402,0,0,0,0,0,0,0,0,0,0,0,0,0,0
7.601573,8591,32553,38410,0,0,0,0,0,0,0,0,0,0,0,0,0,0
7.621087,8591,32553,38419,0,0,0,0,0,0,0,0,0,0,0,0,0,0
7.622087,8594,32557,38429,0,0,0,0,0,0,0,0,0,0,0,0,0,0
7.640262,8598,32561,38435,0,0,0,0,0,0,0,0,0,0,0,0,0,0
7.642262,8597,32565,38441,0,0,0,0,0,0,0,0,0,0,0,0,0,0
7.660664,8599,32566,38447,0,0,0,0,0,0,0,0,0,0,0,0,0,0
7.661692,8603,32569,38453,0,0,0,0,0,0,0,0,0,0,0,0,0,0
7.679738,8605,32569,38456,0,0,0,0,0,0,0,0,0,0,0,0,0,0
7.681787,8607,32569,38457,0,0,0,0,0,0,0,0,0,0,0,0,0,0
7.700521,8610,32572,38462,0,0,0,0,0,0,0,0,0,0,0,0,0,0
7.701521,8611,32576,38469,0,0,0,0,0,0,0,0,0,0,0,0,0,0
7.719523,8615,32579,38476,0,0,0,0,0,0,0,0,0,0,0,0,0,0
7.721523,8618,32581,38486,0,0,0,0,0,0,0,0,0,0,0,0,0,0
7.742184,8620,32587,38493,0,0,0,0,0,0,0,0,0,0,0,0,0,0
7.743455,8623,32589,38495,0,0,0,0,0,0,0,0,0,0,0,0,0,0
7.750166,8624,32594,38502,0,0,0,0,0,0,0,0,0,0,0,0,0,0
7.769757,8629,32597,38507,0,0,0,0,0,0,0,0,0,0,0,0,0,0
7.771781,8634,32599,38514,0,0,0,0,0,0,0,0,0,0,0,0,0,0
7.790878,8631,32598,38516,0,0,0,0,0,0,0,0,0,0,0,0,0,0
7.792343,8634,32605,38520,0,0,0,0,0,0,0,0,0,0,0,0,0,0
7.811539,8640,32605,38523,0,0,0,0,0,0,0,0,0,0,0,0,0,0
7.812547,8640,32606,38522,0,0,0,0,0,0,0,0,0,0,0,0,0,0
7.831567,8642,32602,38527,0,0,0,0,0,0,0,0,0,0,0,0,0,0
7.832567,8644,32604,38528,0,0,0,0,0,0,0,0,0,0,0,0,0,0
7.850567,8642,32606,38525,0,0,0,0,0,0,0,0,0,0,0,0,0,0
7.851567,8642,32607,38531,0,0,0,0,0,0,0,0,0,0,0,0,0,0
7.870328,8649,32611,38536,0,0,0,0,0,0,0,0,0,0,0,0,0,0
7.871328,8650,32615,38545,0,0,0,0,0,0,0,0,0,0,0,0,0,0
7.890528,8653,32620,38551,0,0,0,0,0,0,0,0,0,0,0,0,0,0
7.891566,8655,32619,38560,0,0,0,0,0,0,0,0,0,0,0,0,0,0
7.90999,8654,32626,38561,0,0,0,0,0,0,0,0,0,0,0,0,0,0
7.911991,8654,32625,38561,0,0,0,0,0,0,0,0,0,0,0,0,0,0
7.931917,8658,32624,38561,0,0,0,0,0,0,0,0,0,0,0,0,0,0
7.932921,8659,32624,38563,0,0,0,0,0,0,0,0,0,0,0,0,0,0
7.95101,8660,32624,38566,0,0,0,0,0,0,0,0,0,0,0,0,0,0
7.952035,8661,32626,38575,0,0,0,0,0,0,0,0,0,0,0,0,0,0
7.96982,8665,32631,38574,0,0,0,0,0,0,0,0,0,0,0,0,0,0
7.97182,8665,32630,38576,0,0,0,0,0,0,0,0,0,0,0,0,0,0
7.980838,8667,32626,38572,0,0,0,0,0,0,0,0,0,0,0,0,0,0
8.00105,8664,32628,38573,0,0,0,0,0,0,0,0,0,0,0,0,0,0
8.002047,8664,32625,38569,0,0,0,0,0,0,0,0,0,0,0,0,0,0
8.020103,8660,32622,38564,0,0,0,0,0,0,0,0,0,0,0,0,0,0
8.021101,8664,32623,38561,0,0,0,0,0,0,0,0,0,0,0,0,0,0
8.04072,8666,32619,38565,0,0,0,0,0,0,0,0,0,0,0,0,0,0
8.042721,8666,32622,38563,0,0,0,0,0,0,0,0,0,0,0,0,0,0
8.060356,8668,32622,38569,0,0,0,0,0,0,0,0,0,0,0,0,0,0
8.061382,8672,32624,38568,0,0,0,0,0,0,0,0,0,0,0,0,0,0
8.080284,8672,32624,38574,0,0,0,0,0,0,0,0,0,0,0,0,0,0
8.081284,8672,32627,38572,0,0,0,0,0,0,0,0,0,0,0,0,0,0
8.100568,8669,32621,38572,0,0,0,0,0,0,0,0,0,0,0,0,0,0
8.101591,8671,32621,38569,0,0,0,0,0,0,0,0,0,0,0,0,0,0
8.120717,8670,32617,38561,0,0,0,0,0,0,0,0,0,0,0,0,0,0
8.121886,8674,32615,38552,0,0,0,0,0,0,0,0,0,0,0,0,0,0
8.14036,8674,32613,38547,0,0,0,0,0,0,0,0,0,0,0,0,0,0
8.141388,8671,32610,38546,0,0,0,0,0,0,0,0,0,0,0,0,0,0
8.160059,8673,32616,38549,0,0,0,0,0,0,0,0,0,0,0,0,0,0
8.162285,8675,32620,38555,0,0,0,0,0,0,0,0,0,0,0,0,0,0
8.181811,8678,32619,38558,0,0,0,0,0,0,0,0,0,0,0,0,0,0
8.182825,8680,32625,38562,0,0,0,0,0,0,0,0,0,0,0,0,0,0
8.201593,0,0,0,0,0,0,0,0,0,0,0,0,0,0,0,0,0
8.202592,8682,32626,38562,0,0,0,0,0,0,0,0,0,0,0,0,0,0
8.209738,8683,32632,38569,0,0,0,0,0,0,0,0,0,0,0,0,0,0
8.22986,8686,32634,38573,0,0,0,0,0,0,0,0,0,0,0,0,0,0
8.231864,8685,32637,38580,0,0,0,0,0,0,0,0,0,0,0,0,0,0
8.25121,8687,32644,38582,0,0,0,0,0,0,0,0,0,0,0,0,0,0
8.252237,8691,32651,38598,0,0,0,0,0,0,0,0,0,0,0,0,0,0
8.269582,8693,32661,38608,0,0,0,0,0,0,0,0,0,0,0,0,0,0
8.274117,8700,32669,38617,0,0,0,0,0,0,0,0,0,0,0,0,0,0
8.291995,8705,32676,38633,0,0,0,0,0,0,0,0,0,0,0,0,0,0
8.293225,8709,32682,38641,0,0,0,0,0,0,0,0,0,0,0,0,0,0
8.309517,8716,32693,38654,0,0,0,0,0,0,0,0,0,0,0,0,0,0
8.311638,8721,32705,38672,0,0,0,0,0,0,0,0,0,0,0,0,0,0
8.330293,8726,32719,38693,0,0,0,0,0,0,0,0,0,0,0,0,0,0
8.331469,8735,32734,38704,0,0,0,0,0,0,0,0,0,0,0,0,0,0
8.350491,8739,32741,38711,0,0,0,0,0,0,0,0,0,0,0,0,0,0
8.35249,8742,32750,38726,0,0,0,0,0,0,0,0,0,0,0,0,0,0
8.37149,8748,32757,38729,0,0,0,0,0,0,0,0,0,0,0,0,0,0
8.372489,8750,32762,38736,0,0,0,0,0,0,0,0,0,0,0,0,0,0
8.389997,8747,32760,38738,0,0,0,0,0,0,0,0,0,0,0,0,0,0
8.390998,8751,32765,38739,0,0,0,0,0,0,0,0,0,0,0,0,0,0
8.409998,8751,32768,38738,0,0,0,0,0,0,0,0,0,0,0,0,0,0
8.411998,8754,32765,38740,0,0,0,0,0,0,0,0,0,0,0,0,0,0
8.430536,8754,32766,38736,0,0,0,0,0,0,0,0,0,0,0,0,0,0
8.43154,8757,32771,38746,0,0,0,0,0,0,0,0,0,0,0,0,0,0
8.451859,8760,32772,38752,0,0,0,0,0,0,0,0,0,0,0,0,0,0
8.45386,8761,32776,38757,0,0,0,0,0,0,0,0,0,0,0,0,0,0
8.470364,8763,32779,38759,0,0,0,0,0,0,0,0,0,0,0,0,0,0
8.471363,8765,32786,38767,0,0,0,0,0,0,0,0,0,0,0,0,0,0
8.490501,8765,32780,38767,0,0,0,0,0,0,0,0,0,0,0,0,0,0
8.492503,8766,32784,38765,0,0,0,0,0,0,0,0,0,0,0,0,0,0
8.500503,8769,32783,38768,0,0,0,0,0,0,0,0,0,0,0,0,0,0
8.520505,8768,32784,38768,0,0,0,0,0,0,0,0,0,0,0,0,0,0
8.521505,8769,32786,38764,0,0,0,0,0,0,0,0,0,0,0,0,0,0
8.540699,8771,32783,38766,0,0,0,0,0,0,0,0,0,0,0,0,0,0
8.541972,8771,32785,38762,0,0,0,0,0,0,0,0,0,0,0,0,0,0
8.559551,8772,32787,38763,0,0,0,0,0,0,0,0,0,0,0,0,0,0
8.562622,8769,32783,38762,0,0,0,0,0,0,0,0,0,0,0,0,0,0
8.581991,8771,32782,38764,0,0,0,0,0,0,0,0,0,0,0,0,0,0
8.583066,8773,32783,38767,0,0,0,0,0,0,0,0,0,0,0,0,0,0
8.601326,8774,32788,38771,0,0,0,0,0,0,0,0,0,0,0,0,0,0
8.603325,8776,32788,38768,0,0,0,0,0,0,0,0,0,0,0,0,0,0
8.622018,8772,32789,38774,0,0,0,0,0,0,0,0,0,0,0,0,0,0
8.62304,8779,32788,38771,0,0,0,0,0,0,0,0,0,0,0,0,0,0
8.640096,8777,32784,38765,0,0,0,0,0,0,0,0,0,0,0,0,0,0
8.641174,8776,32784,38763,0,0,0,0,0,0,0,0,0,0,0,0,0,0
8.659583,8777,32780,38765,0,0,0,0,0,0,0,0,0,0,0,0,0,0
8.661583,8776,32779,38761,0,0,0,0,0,0,0,0,0,0,0,0,0,0
8.679783,8777,32776,38763,0,0,0,0,0,0,0,0,0,0,0,0,0,0
8.681829,8778,32774,38760,0,0,0,0,0,0,0,0,0,0,0,0,0,0
8.701146,8778,32776,38764,0,0,0,0,0,0,0,0,0,0,0,0,0,0
8.702146,8779,32773,38756,0,0,0,0,0,0,0,0,0,0,0,0,0,0
8.720056,8779,32773,38762,0,0,0,0,0,0,0,0,0,0,0,0,0,0
8.721505,8779,32776,38757,0,0,0,0,0,0,0,0,0,0,0,0,0,0
8.731526,8777,32771,38759,0,0,0,0,0,0,0,0,0,0,0,0,0,0
8.732529,8779,32770,38758,0,0,0,0,0,0,0,0,0,0,0,0,0,0
8.750202,8777,32771,38762,0,0,0,0,0,0,0,0,0,0,0,0,0,0
8.769952,8778,32768,38750,0,0,0,0,0,0,0,0,0,0,0,0,0,0
8.771953,8779,32768,38755,0,0,0,0,0,0,0,0,0,0,0,0,0,0
8.789955,8778,32763,38742,0,0,0,0,0,0,0,0,0,0,0,0,0,0
8.791969,8776,32758,38740,0,0,0,0,0,0,0,0,0,0,0,0,0,0
8.810192,8776,32754,38726,0,0,0,0,0,0,0,0,0,0,0,0,0,0
8.811217,8775,32752,38726,0,0,0,0,0,0,0,0,0,0,0,0,0,0
8.829493,8776,32748,38720,0,0,0,0,0,0,0,0,0,0,0,0,0,0
8.832014,8774,32746,38719,0,0,0,0,0,0,0,0,0,0,0,0,0,0
8.850105,8775,32747,38715,0,0,0,0,0,0,0,0,0,0,0,0,0,0
8.852126,8773,32742,38708,0,0,0,0,0,0,0,0,0,0,0,0,0,0
8.871877,8775,32740,38706,0,0,0,0,0,0,0,0,0,0,0,0,0,0
8.873877,8775,32743,38705,0,0,0,0,0,0,0,0,0,0,0,0,0,0
8.891359,8772,32742,38703,0,0,0,0,0,0,0,0,0,0,0,0,0,0
8.892865,8774,32742,38704,0,0,0,0,0,0,0,0,0,0,0,0,0,0
8.910439,8775,32745,38704,0,0,0,0,0,0,0,0,0,0,0,0,0,0
8.911453,8772,32748,38697,0,0,0,0,0,0,0,0,0,0,0,0,0,0
8.92992,8774,32746,38692,0,0,0,0,0,0,0,0,0,0,0,0,0,0
8.931427,8772,32744,38686,0,0,0,0,0,0,0,0,0,0,0,0,0,0
8.950807,8770,32737,38676,0,0,0,0,0,0,0,0,0,0,0,0,0,0
8.951829,8769,32735,38671,0,0,0,0,0,0,0,0,0,0,0,0,0,0
8.971535,8764,32729,38662,0,0,0,0,0,0,0,0,0,0,0,0,0,0
8.97353,8765,32729,38660,0,0,0,0,0,0,0,0,0,0,0,0,0,0
8.981699,8761,32729,38661,0,0,0,0,0,0,0,0,0,0,0,0,0,0
9.001692,8763,32725,38661,0,0,0,0,0,0,0,0,0,0,0,0,0,0
9.002712,8764,32731,38664,0,0,0,0,0,0,0,0,0,0,0,0,0,0
9.02175,8764,32731,38669,0,0,0,0,0,0,0,0,0,0,0,0,0,0
9.022762,8767,32735,38672,0,0,0,0,0,0,0,0,0,0,0,0,0,0
9.040675,8766,32734,38681,0,0,0,0,0,0,0,0,0,0,0,0,0,0
9.042675,8771,32740,38685,0,0,0,0,0,0,0,0,0,0,0,0,0,0
9.059979,8773,32743,38697,0,0,0,0,0,0,0,0,0,0,0,0,0,0
9.061979,8774,32747,38702,0,0,0,0,0,0,0,0,0,0,0,0,0,0
9.080805,8775,32746,38712,0,0,0,0,0,0,0,0,0,0,0,0,0,0
9.0818,8778,32744,38706,0,0,0,0,0,0,0,0,0,0,0,0,0,0
9.100872,8781,32744,38706,0,0,0,0,0,0,0,0,0,0,0,0,0,0
9.101879,8778,32745,38704,0,0,0,0,0,0,0,0,0,0,0,0,0,0
9.121515,8777,32743,38705,0,0,0,0,0,0,0,0,0,0,0,0,0,0
9.122529,8780,32742,38708,0,0,0,0,0,0,0,0,0,0,0,0,0,0
9.140349,8781,32741,38710,0,0,0,0,0,0,0,0,0,0,0,0,0,0
9.141364,8783,32746,38711,0,0,0,0,0,0,0,0,0,0,0,0,0,0
9.159895,8783,32746,38717,0,0,0,0,0,0,0,0,0,0,0,0,0,0
9.160895,8785,32752,38724,0,0,0,0,0,0,0,0,0,0,0,0,0,0
9.180322,8790,32752,38731,0,0,0,0,0,0,0,0,0,0,0,0,0,0
9.181322,8791,32762,38742,0,0,0,0,0,0,0,0,0,0,0,0,0,0
9.199829,8795,32767,38751,0,0,0,0,0,0,0,0,0,0,0,0,0,0
9.202829,8795,32771,38760,0,0,0,0,0,0,0,0,0,0,0,0,0,0
9.209829,8800,32774,38767,0,0,0,0,0,0,0,0,0,0,0,0,0,0
9.231432,8803,32777,38773,0,0,0,0,0,0,0,0,0,0,0,0,0,0
9.232436,8803,32778,38773,0,0,0,0,0,0,0,0,0,0,0,0,0,0
9.251047,8801,32776,38768,0,0,0,0,0,0,0,0,0,0,0,0,0,0
9.252072,8800,32772,38763,0,0,0,0,0,0,0,0,0,0,0,0,0,0
9.27019,8802,32768,38757,0,0,0,0,0,0,0,0,0,0,0,0,0,0
9.271211,8802,32764,38749,0,0,0,0,0,0,0,0,0,0,0,0,0,0
9.29023,8800,32771,38751,0,0,0,0,0,0,0,0,0,0,0,0,0,0
9.291259,8801,32766,38746,0,0,0,0,0,0,0,0,0,0,0,0,0,0
9.310605,8802,32766,38750,0,0,0,0,0,0,0,0,0,0,0,0,0,0
9.31163,8805,32767,38755,0,0,0,0,0,0,0,0,0,0,0,0,0,0
9.329676,8807,32770,38760,0,0,0,0,0,0,0,0,0,0,0,0,0,0
9.331399,8807,32770,38765,0,0,0,0,0,0,0,0,0,0,0,0,0,0
9.350973,8808,32774,38767,0,0,0,0,0,0,0,0,0,0,0,0,0,0
9.352,8809,32771,38768,0,0,0,0,0,0,0,0,0,0,0,0,0,0
9.36205,8810,32775,38765,0,0,0,0,0,0,0,0,0,0,0,0,0,0
9.38155,8811,32772,38766,0,0,0,0,0,0,0,0,0,0,0,0,0,0
9.38255,8811,32773,38763,0,0,0,0,0,0,0,0,0,0,0,0,0,0
9.401056,8811,32770,38768,0,0,0,0,0,0,0,0,0,0,0,0,0,0
9.402056,8813,32772,38768,0,0,0,0,0,0,0,0,0,0,0,0,0,0
9.421379,8811,32764,38764,0,0,0,0,0,0,0,0,0,0,0,0,0,0
9.422397,8813,32767,38764,0,0,0,0,0,0,0,0,0,0,0,0,0,0
9.439548,8812,32763,38762,0,0,0,0,0,0,0,0,0,0,0,0,0,0
9.441547,8810,32761,38758,0,0,0,0,0,0,0,0,0,0,0,0,0,0
9.460929,8811,32761,38759,0,0,0,0,0,0,0,0,0,0,0,0,0,0
9.46193,8811,32764,38760,0,0,0,0,0,0,0,0,0,0,0,0,0,0
9.480365,8811,32759,38757,0,0,0,0,0,0,0,0,0,0,0,0,0,0
9.481365,8811,32760,38761,0,0,0,0,0,0,0,0,0,0,0,0,0,0
9.502227,8812,32760,38757,0,0,0,0,0,0,0,0,0,0,0,0,0,0
9.503227,8812,32758,38756,0,0,0,0,0,0,0,0,0,0,0,0,0,0
9.520322,8816,32754,38756,0,0,0,0,0,0,0,0,0,0,0,0,0,0
9.52134,8813,32754,38752,0,0,0,0,0,0,0,0,0,0,0,0,0,0
9.539458,8813,32755,38751,0,0,0,0,0,0,0,0,0,0,0,0,0,0
9.541936,8815,32748,38748,0,0,0,0,0,0,0,0,0,0,0,0,0,0
9.550284,8813,32748,38742,0,0,0,0,0,0,0,0,0,0,0,0,0,0
9.561475,8813,32749,38738,0,0,0,0,0,0,0,0,0,0,0,0,0,0
9.581827,8812,32743,38731,0,0,0,0,0,0,0,0,0,0,0,0,0,0
9.582856,8812,32742,38730,0,0,0,0,0,0,0,0,0,0,0,0,0,0
9.600898,8809,32746,38727,0,0,0,0,0,0,0,0,0,0,0,0,0,0
9.601899,8812,32743,38725,0,0,0,0,0,0,0,0,0,0,0,0,0,0
9.620379,8811,32748,38721,0,0,0,0,0,0,0,0,0,0,0,0,0,0
9.621379,8812,32746,38718,0,0,0,0,0,0,0,0,0,0,0,0,0,0
9.641458,8809,32747,38715,0,0,0,0,0,0,0,0,0,0,0,0,0,0
9.642461,8809,32742,38714,0,0,0,0,0,0,0,0,0,0,0,0,0,0
9.661112,8805,32742,38699,0,0,0,0,0,0,0,0,0,0,0,0,0,0
9.662139,8804,32732,38692,0,0,0,0,0,0,0,0,0,0,0,0,0,0
9.679859,8801,32733,38686,0,0,0,0,0,0,0,0,0,0,0,0,0,0
9.681861,8795,32733,38675,0,0,0,0,0,0,0,0,0,0,0,0,0,0
9.700658,8796,32730,38672,0,0,0,0,0,0,0,0,0,0,0,0,0,0
9.701667,8797,32721,38666,0,0,0,0,0,0,0,0,0,0,0,0,0,0
9.720502,8793,32728,38667,0,0,0,0,0,0,0,0,0,0,0,0,0,0
9.721502,8790,32718,38659,0,0,0,0,0,0,0,0,0,0,0,0,0,0
9.740492,8791,32723,38660,0,0,0,0,0,0,0,0,0,0,0,0,0,0
9.742542,8789,32724,38660,0,0,0,0,0,0,0,0,0,0,0,0,0,0
9.759727,8793,32721,38658,0,0,0,0,0,0,0,0,0,0,0,0,0,0
9.761727,8791,32712,38657,0,0,0,0,0,0,0,0,0,0,0,0,0,0
9.781497,8792,32718,38656,0,0,0,0,0,0,0,0,0,0,0,0,0,0
9.782768,8792,32716,38653,0,0,0,0,0,0,0,0,0,0,0,0,0,0
9.79191,8794,32723,38658,0,0,0,0,0,0,0,0,0,0,0,0,0,0
9.810355,8792,32720,38661,0,0,0,0,0,0,0,0,0,0,0,0,0,0
9.811355,8795,32722,38666,0,0,0,0,0,0,0,0,0,0,0,0,0,0
9.830838,8799,32712,38662,0,0,0,0,0,0,0,0,0,0,0,0,0,0
9.832351,8799,32718,38658,0,0,0,0,0,0,0,0,0,0,0,0,0,0
9.850102,8800,32711,38651,0,0,0,0,0,0,0,0,0,0,0,0,0,0
9.851126,8795,32707,38646,0,0,0,0,0,0,0,0,0,0,0,0,0,0
9.872331,8796,32703,38641,0,0,0,0,0,0,0,0,0,0,0,0,0,0
9.873331,8795,32706,38641,0,0,0,0,0,0,0,0,0,0,0,0,0,0
9.890332,8797,32701,38644,0,0,0,0,0,0,0,0,0,0,0,0,0,0
9.891333,8798,32710,38659,0,0,0,0,0,0,0,0,0,0,0,0,0,0
9.909565,8804,32712,38668,0,0,0,0,0,0,0,0,0,0,0,0,0,0
9.911566,8805,32718,38675,0,0,0,0,0,0,0,0,0,0,0,0,0,0
9.930519,8807,32716,38680,0,0,0,0,0,0,0,0,0,0,0,0,0,0
9.931515,8812,32719,38679,0,0,0,0,0,0,0,0,0,0,0,0,0,0
9.951262,8810,32715,38676,0,0,0,0,0,0,0,0,0,0,0,0,0,0
9.952261,8808,32718,38677,0,0,0,0,0,0,0,0,0,0,0,0,0,0
9.960262,8808,32711,38677,0,0,0,0,0,0,0,0,0,0,0,0,0,0
9.981262,8811,32716,38676,0,0,0,0,0,0,0,0,0,0,0,0,0,0
9.982263,8815,32718,38681,0,0,0,0,0,0,0,0,0,0,0,0,0,0
10.001975,8812,32724,38688,0,0,0,0,0,0,0,0,0,0,0,0,0,0
10.002994,8812,32721,38690,0,0,0,0,0,0,0,0,0,0,0,0,0,0
10.020301,8813,32725,38690,0,0,0,0,0,0,0,0,0,0,0,0,0,0
10.022301,8816,32725,38700,0,0,0,0,0,0,0,0,0,0,0,0,0,0
10.041259,8820,32727,38701,0,0,0,0,0,0,0,0,0,0,0,0,0,0
10.042603,8819,32727,38710,0,0,0,0,0,0,0,0,0,0,0,0,0,0
10.060606,8819,32732,38707,0,0,0,0,0,0,0,0,0,0,0,0,0,0
10.061606,8821,32728,38709,0,0,0,0,0,0,0,0,0,0,0,0,0,0
10.081538,8825,32729,38712,0,0,0,0,0,0,0,0,0,0,0,0,0,0
10.08254,8827,32728,38715,0,0,0,0,0,0,0,0,0,0,0,0,0,0
10.100551,8829,32734,38720,0,0,0,0,0,0,0,0,0,0,0,0,0,0
10.101551,8829,32737,38726,0,0,0,0,0,0,0,0,0,0,0,0,0,0
10.120552,8828,32739,38730,0,0,0,0,0,0,0,0,0,0,0,0,0,0
10.121552,8836,32737,38736,0,0,0,0,0,0,0,0,0,0,0,0,0,0
10.142058,8834,32739,38736,0,0,0,0,0,0,0,0,0,0,0,0,0,0
10.143058,8836,32738,38738,0,0,0,0,0,0,0,0,0,0,0,0,0,0
10.16047,8834,32737,38736,0,0,0,0,0,0,0,0,0,0,0,0,0,0
10.161489,8838,32735,38735,0,0,0,0,0,0,0,0,0,0,0,0,0,0
10.18001,8834,32734,38732,0,0,0,0,0,0,0,0,0,0,0,0,0,0
10.181235,8838,32737,38734,0,0,0,0,0,0,0,0,0,0,0,0,0,0
10.191475,8835,32734,38732,0,0,0,0,0,0,0,0,0,0,0,0,0,0
10.210406,8841,32736,38733,0,0,0,0,0,0,0,0,0,0,0,0,0,0
10.211572,8838,32738,38737,0,0,0,0,0,0,0,0,0,0,0,0,0,0
10.230225,8839,32736,38740,0,0,0,0,0,0,0,0,0,0,0,0,0,0
10.231225,8840,32739,38742,0,0,0,0,0,0,0,0,0,0,0,0,0,0
10.250901,8845,32737,38743,0,0,0,0,0,0,0,0,0,0,0,0,0,0
10.251922,8841,32738,38743,0,0,0,0,0,0,0,0,0,0,0,0,0,0
10.270317,8845,32737,38744,0,0,0,0,0,0,0,0,0,0,0,0,0,0
10.27132,8841,32736,38744,0,0,0,0,0,0,0,0,0,0,0,0,0,0
10.290051,8850,32736,38738,0,0,0,0,0,0,0,0,0,0,0,0,0,0
10.292058,8843,32735,38735,0,0,0,0,0,0,0,0,0,0,0,0,0,0
10.311837,8847,32734,38726,0,0,0,0,0,0,0,0,0,0,0,0,0,0
10.312861,8844,32733,38728,0,0,0,0,0,0,0,0,0,0,0,0,0,0
10.330496,8844,32731,38717,0,0,0,0,0,0,0,0,0,0,0,0,0,0
10.331521,8841,32731,38713,0,0,0,0,0,0,0,0,0,0,0,0,0,0
10.351246,8841,32724,38708,0,0,0,0,0,0,0,0,0,0,0,0,0,0
10.352745,8840,32732,38707,0,0,0,0,0,0,0,0,0,0,0,0,0,0
10.369799,8840,32730,38703,0,0,0,0,0,0,0,0,0,0,0,0,0,0
10.370906,8840,32734,38702,0,0,0,0,0,0,0,0,0,0,0,0,0,0
10.391128,8839,32733,38697,0,0,0,0,0,0,0,0,0,0,0,0,0,0
10.392635,8835,32733,38698,0,0,0,0,0,0,0,0,0,0,0,0,0,0
10.410154,8835,32733,38696,0,0,0,0,0,0,0,0,0,0,0,0,0,0
10.411154,8833,32734,38693,0,0,0,0,0,0,0,0,0,0,0,0,0,0
10.420157,8833,32730,38691,0,0,0,0,0,0,0,0,0,0,0,0,0,0
10.439665,8829,32727,38680,0,0,0,0,0,0,0,0,0,0,0,0,0,0
10.441665,8832,32727,38679,0,0,0,0,0,0,0,0,0,0,0,0,0,0
10.459688,8828,32723,38676,0,0,0,0,0,0,0,0,0,0,0,0,0,0
10.461732,8831,32726,38678,0,0,0,0,0,0,0,0,0,0,0,0,0,0
10.481009,8829,32722,38682,0,0,0,0,0,0,0,0,0,0,0,0,0,0
10.482034,8831,32725,38677,0,0,0,0,0,0,0,0,0,0,0,0,0,0
10.500318,8830,32727,38685,0,0,0,0,0,0,0,0,0,0,0,0,0,0
10.501343,8837,32730,38693,0,0,0,0,0,0,0,0,0,0,0,0,0,0
10.521579,8836,32732,38700,0,0,0,0,0,0,0,0,0,0,0,0,0,0
10.522579,8843,32737,38703,0,0,0,0,0,0,0,0,0,0,0,0,0,0
10.540007,8843,32736,38713,0,0,0,0,0,0,0,0,0,0,0,0,0,0
10.541231,8847,32741,38716,0,0,0,0,0,0,0,0,0,0,0,0,0,0
10.561265,8845,32741,38717,0,0,0,0,0,0,0,0,0,0,0,0,0,0
10.562309,8845,32734,38716,0,0,0,0,0,0,0,0,0,0,0,0,0,0
10.580677,8846,32731,38709,0,0,0,0,0,0,0,0,0,0,0,0,0,0
10.581677,8851,32732,38704,0,0,0,0,0,0,0,0,0,0,0,0,0,0
10.599257,8847,32726,38704,0,0,0,0,0,0,0,0,0,0,0,0,0,0
10.601515,8846,32726,38702,0,0,0,0,0,0,0,0,0,0,0,0,0,0
10.621212,8851,32726,38702,0,0,0,0,0,0,0,0,0,0,0,0,0,0
10.622241,8851,32727,38703,0,0,0,0,0,0,0,0,0,0,0,0,0,0
10.640098,8850,32727,38711,0,0,0,0,0,0,0,0,0,0,0,0,0,0
10.641371,8856,32729,38716,0,0,0,0,0,0,0,0,0,0,0,0,0,0
10.64981,8857,32733,38718,0,0,0,0,0,0,0,0,0,0,0,0,0,0
10.651829,8859,32733,38721,0,0,0,0,0,0,0,0,0,0,0,0,0,0
10.670707,8862,32734,38724,0,0,0,0,0,0,0,0,0,0,0,0,0,0
10.69015,8861,32737,38729,0,0,0,0,0,0,0,0,0,0,0,0,0,0
10.69205,8860,32732,38728,0,0,0,0,0,0,0,0,0,0,0,0,0,0
10.709522,8864,32728,38726,0,0,0,0,0,0,0,0,0,0,0,0,0,0
10.711565,8862,32729,38720,0,0,0,0,0,0,0,0,0,0,0,0,0,0
10.730616,8865,32732,38725,0,0,0,0,0,0,0,0,0,0,0,0,0,0
10.731635,8862,32731,38730,0,0,0,0,0,0,0,0,0,0,0,0,0,0
10.751928,8866,32733,38729,0,0,0,0,0,0,0,0,0,0,0,0,0,0
10.752926,8868,32737,38740,0,0,0,0,0,0,0,0,0,0,0,0,0,0
10.76939,8872,32740,38741,0,0,0,0,0,0,0,0,0,0,0,0,0,0
10.771779,8874,32740,38747,0,0,0,0,0,0,0,0,0,0,0,0,0,0
10.789398,8870,32742,38742,0,0,0,0,0,0,0,0,0,0,0,0,0,0
10.791493,8875,32742,38747,0,0,0,0,0,0,0,0,0,0,0,0,0,0
10.809587,8869,32741,38751,0,0,0,0,0,0,0,0,0,0,0,0,0,0
10.81163,8875,32743,38750,0,0,0,0,0,0,0,0,0,0,0,0,0,0
10.829739,8878,32744,38760,0,0,0,0,0,0,0,0,0,0,0,0,0,0
10.831762,8881,32747,38766,0,0,0,0,0,0,0,0,0,0,0,0,0,0
10.849627,8881,32753,38771,0,0,0,0,0,0,0,0,0,0,0,0,0,0
10.851678,8885,32754,38774,0,0,0,0,0,0,0,0,0,0,0,0,0,0
10.869363,8883,32751,38772,0,0,0,0,0,0,0,0,0,0,0,0,0,0
10.871613,8884,32752,38770,0,0,0,0,0,0,0,0,0,0,0,0,0,0
10.891562,8878,32749,38766,0,0,0,0,0,0,0,0,0,0,0,0,0,0
10.893063,8883,32741,38753,0,0,0,0,0,0,0,0,0,0,0,0,0,0
10.90062,8879,32742,38752,0,0,0,0,0,0,0,0,0,0,0,0,0,0
10.920416,8882,32744,38757,0,0,0,0,0,0,0,0,0,0,0,0,0,0
10.921526,8882,32740,38758,0,0,0,0,0,0,0,0,0,0,0,0,0,0
10.941864,8880,32740,38756,0,0,0,0,0,0,0,0,0,0,0,0,0,0
10.943864,8880,32741,38760,0,0,0,0,0,0,0,0,0,0,0,0,0,0
10.960148,8884,32746,38764,0,0,0,0,0,0,0,0,0,0,0,0,0,0
10.962148,8883,32745,38763,0,0,0,0,0,0,0,0,0,0,0,0,0,0
10.979669,8890,32746,38770,0,0,0,0,0,0,0,0,0,0,0,0,0,0
10.981689,8886,32747,38768,0,0,0,0,0,0,0,0,0,0,0,0,0,0
11.000446,8889,32745,38767,0,0,0,0,0,0,0,0,0,0,0,0,0,0
11.001801,8883,32743,38762,0,0,0,0,0,0,0,0,0,0,0,0,0,0
11.019845,8887,32737,38756,0,0,0,0,0,0,0,0,0,0,0,0,0,0
11.021845,8885,32733,38747,0,0,0,0,0,0,0,0,0,0,0,0,0,0
11.040505,8885,32730,38732,0,0,0,0,0,0,0,0,0,0,0,0,0,0
11.042526,8878,32725,38728,0,0,0,0,0,0,0,0,0,0,0,0,0,0
11.060387,8885,32724,38726,0,0,0,0,0,0,0,0,0,0,0,0,0,0
11.062607,8881,32726,38730,0,0,0,0,0,0,0,0,0,0,0,0,0,0
11.082507,8885,32728,38735,0,0,0,0,0,0,0,0,0,0,0,0,0,0
11.083558,8884,32734,38742,0,0,0,0,0,0,0,0,0,0,0,0,0,0
11.099724,8890,32740,38749,0,0,0,0,0,0,0,0,0,0,0,0,0,0
11.101252,8886,32747,38752,0,0,0,0,0,0,0,0,0,0,0,0,0,0
11.11975,8891,32745,38757,0,0,0,0,0,0,0,0,0,0,0,0,0,0
11.121778,8889,32745,38752,0,0,0,0,0,0,0,0,0,0,0,0,0,0
11.13078,8893,32745,38745,0,0,0,0,0,0,0,0,0,0,0,0,0,0
11.149589,8891,32740,38741,0,0,0,0,0,0,0,0,0,0,0,0,0,0
11.151613,8893,32738,38739,0,0,0,0,0,0,0,0,0,0,0,0,0,0
11.171736,8885,32739,38735,0,0,0,0,0,0,0,0,0,0,0,0,0,0
11.172766,8888,32741,38737,0,0,0,0,0,0,0,0,0,0,0,0,0,0
11.191341,8883,32734,38730,0,0,0,0,0,0,0,0,0,0,0,0,0,0
11.192767,8888,32735,38734,0,0,0,0,0,0,0,0,0,0,0,0,0,0
11.20989,8887,32736,38732,0,0,0,0,0,0,0,0,0,0,0,0,0,0
11.21189,8890,32735,38729,0,0,0,0,0,0,0,0,0,0,0,0,0,0
11.230667,8888,32735,38734,0,0,0,0,0,0,0,0,0,0,0,0,0,0
11.23177,8895,32739,38737,0,0,0,0,0,0,0,0,0,0,0,0,0,0
11.250593,8888,32741,38744,0,0,0,0,0,0,0,0,0,0,0,0,0,0
11.251585,8895,32745,38748,0,0,0,0,0,0,0,0,0,0,0,0,0,0
11.271655,8893,32749,38753,0,0,0,0,0,0,0,0,0,0,0,0,0,0
11.273676,8902,32753,38764,0,0,0,0,0,0,0,0,0,0,0,0,0,0
11.290923,8895,32754,38768,0,0,0,0,0,0,0,0,0,0,0,0,0,0
11.291945,8904,32757,38772,0,0,0,0,0,0,0,0,0,0,0,0,0,0
11.309867,8896,32754,38766,0,0,0,0,0,0,0,0,0,0,0,0,0,0
11.310971,8904,32760,38765,0,0,0,0,0,0,0,0,0,0,0,0,0,0
11.330971,8902,32753,38763,0,0,0,0,0,0,0,0,0,0,0,0,0,0
11.331978,8907,32756,38765,0,0,0,0,0,0,0,0,0,0,0,0,0,0
11.350273,8902,32750,38765,0,0,0,0,0,0,0,0,0,0,0,0,0,0
11.351559,8905,32754,38772,0,0,0,0,0,0,0,0,0,0,0,0,0,0
11.359343,8903,32753,38773,0,0,0,0,0,0,0,0,0,0,0,0,0,0
11.380627,8906,32751,38774,0,0,0,0,0,0,0,0,0,0,0,0,0,0
11.381652,8906,32753,38771,0,0,0,0,0,0,0,0,0,0,0,0,0,0
11.400785,8907,32756,38775,0,0,0,0,0,0,0,0,0,0,0,0,0,0
11.40229,8905,32751,38774,0,0,0,0,0,0,0,0,0,0,0,0,0,0
11.421293,8907,32753,38772,0,0,0,0,0,0,0,0,0,0,0,0,0,0
11.422293,8906,32751,38775,0,0,0,0,0,0,0,0,0,0,0,0,0,0
11.44084,8910,32755,38778,0,0,0,0,0,0,0,0,0,0,0,0,0,0
11.44183,8909,32752,38774,0,0,0,0,0,0,0,0,0,0,0,0,0,0
11.459795,8909,32749,38771,0,0,0,0,0,0,0,0,0,0,0,0,0,0
11.461807,8905,32745,38766,0,0,0,0,0,0,0,0,0,0,0,0,0,0
11.48112,8905,32745,38762,0,0,0,0,0,0,0,0,0,0,0,0,0,0
11.482229,8909,32745,38761,0,0,0,0,0,0,0,0,0,0,0,0,0,0
11.500276,8911,32747,38767,0,0,0,0,0,0,0,0,0,0,0,0,0,0
11.501276,8908,32752,38774,0,0,0,0,0,0,0,0,0,0,0,0,0,0
11.519454,8913,32750,38780,0,0,0,0,0,0,0,0,0,0,0,0,0,0
11.521721,8916,32757,38788,0,0,0,0,0,0,0,0,0,0,0,0,0,0
11.54027,8915,32764,38798,0,0,0,0,0,0,0,0,0,0,0,0,0,0
11.54127,8918,32763,38809,0,0,0,0,0,0,0,0,0,0,0,0,0,0
11.559498,8922,32770,38813,0,0,0,0,0,0,0,0,0,0,0,0,0,0
11.561519,8921,32770,38820,0,0,0,0,0,0,0,0,0,0,0,0,0,0
11.581069,8927,32776,38825,0,0,0,0,0,0,0,0,0,0,0,0,0,0
11.58207,8920,32775,38826,0,0,0,0,0,0,0,0,0,0,0,0,0,0
11.590071,8928,32780,38827,0,0,0,0,0,0,0,0,0,0,0,0,0,0
11.592071,8929,32780,38832,0,0,0,0,0,0,0,0,0,0,0,0,0,0
11.610585,8928,32780,38837,0,0,0,0,0,0,0,0,0,0,0,0,0,0
11.631114,8932,32784,38844,0,0,0,0,0,0,0,0,0,0,0,0,0,0
11.632131,8932,32790,38851,0,0,0,0,0,0,0,0,0,0,0,0,0,0
11.649776,8937,32786,38851,0,0,0,0,0,0,0,0,0,0,0,0,0,0
11.652776,8933,32786,38847,0,0,0,0,0,0,0,0,0,0,0,0,0,0
11.670387,8935,32785,38851,0,0,0,0,0,0,0,0,0,0,0,0,0,0
11.671387,8936,32785,38854,0,0,0,0,0,0,0,0,0,0,0,0,0,0
11.691388,8938,32785,38854,0,0,0,0,0,0,0,0,0,0,0,0,0,0
11.693388,8935,32789,38860,0,0,0,0,0,0,0,0,0,0,0,0,0,0
11.709896,8934,32790,38858,0,0,0,0,0,0,0,0,0,0,0,0,0,0
11.711895,8938,32783,38853,0,0,0,0,0,0,0,0,0,0,0,0,0,0
11.731897,8936,32779,38852,0,0,0,0,0,0,0,0,0,0,0,0,0,0
11.732897,8937,32780,38845,0,0,0,0,0,0,0,0,0,0,0,0,0,0
11.751235,8938,32772,38839,0,0,0,0,0,0,0,0,0,0,0,0,0,0
11.752357,8934,32772,38832,0,0,0,0,0,0,0,0,0,0,0,0,0,0
11.772224,8934,32769,38827,0,0,0,0,0,0,0,0,0,0,0,0,0,0
11.773451,8932,32767,38822,0,0,0,0,0,0,0,0,0,0,0,0,0,0
11.791138,8935,32769,38819,0,0,0,0,0,0,0,0,0,0,0,0,0,0
11.792159,8935,32770,38815,0,0,0,0,0,0,0,0,0,0,0,0,0,0
11.810766,8937,32766,38816,0,0,0,0,0,0,0,0,0,0,0,0,0,0
11.811853,8936,32770,38813,0,0,0,0,0,0,0,0,0,0,0,0,0,0
11.831965,8935,32766,38805,0,0,0,0,0,0,0,0,0,0,0,0,0,0
11.832994,8937,32763,38803,0,0,0,0,0,0,0,0,0,0,0,0,0,0
11.849696,8934,32769,38799,0,0,0,0,0,0,0,0,0,0,0,0,0,0
11.851742,8936,32769,38802,0,0,0,0,0,0,0,0,0,0,0,0,0,0
11.871534,8934,32767,38800,0,0,0,0,0,0,0,0,0,0,0,0,0,0
11.872558,8936,32768,38800,0,0,0,0,0,0,0,0,0,0,0,0,0,0
11.881059,8936,32766,38791,0,0,0,0,0,0,0,0,0,0,0,0,0,0
11.882099,8932,32759,38783,0,0,0,0,0,0,0,0,0,0,0,0,0,0
11.90125,8934,32758,38778,0,0,0,0,0,0,0,0,0,0,0,0,0,0
11.920931,8931,32753,38775,0,0,0,0,0,0,0,0,0,0,0,0,0,0
11.92193,8930,32750,38772,0,0,0,0,0,0,0,0,0,0,0,0,0,0
11.939438,8931,32751,38777,0,0,0,0,0,0,0,0,0,0,0,0,0,0
11.941437,8934,32758,38781,0,0,0,0,0,0,0,0,0,0,0,0,0,0
11.960575,8938,32760,38789,0,0,0,0,0,0,0,0,0,0,0,0,0,0
11.961682,8937,32762,38796,0,0,0,0,0,0,0,0,0,0,0,0,0,0
11.979729,8938,32764,38801,0,0,0,0,0,0,0,0,0,0,0,0,0,0
11.981729,8938,32766,38805,0,0,0,0,0,0,0,0,0,0,0,0,0,0
12.000395,8945,32768,38810,0,0,0,0,0,0,0,0,0,0,0,0,0,0
12.001395,8942,32771,38813,0,0,0,0,0,0,0,0,0,0,0,0,0,0
12.021097,8942,32773,38817,0,0,0,0,0,0,0,0,0,0,0,0,0,0
12.022352,8943,32775,38822,0,0,0,0,0,0,0,0,0,0,0,0,0,0
12.040277,8948,32774,38827,0,0,0,0,0,0,0,0,0,0,0,0,0,0
12.041568,8948,32780,38829,0,0,0,0,0,0,0,0,0,0,0,0,0,0
12.060096,8947,32777,38837,0,0,0,0,0,0,0,0,0,0,0,0,0,0
12.061211,8949,32786,38842,0,0,0,0,0,0,0,0,0,0,0,0,0,0
12.082296,8954,32786,38848,0,0,0,0,0,0,0,0,0,0,0,0,0,0
12.083315,8954,32786,38845,0,0,0,0,0,0,0,0,0,0,0,0,0,0
12.10111,8956,32788,38847,0,0,0,0,0,0,0,0,0,0,0,0,0,0
12.102214,8954,32792,38855,0,0,0,0,0,0,0,0,0,0,0,0,0,0
12.120355,8955,32792,38860,0,0,0,0,0,0,0,0,0,0,0,0,0,0
12.121355,8958,32796,38861,0,0,0,0,0,0,0,0,0,0,0,0,0,0
12.130319,8960,32797,38869,0,0,0,0,0,0,0,0,0,0,0,0,0,0
12.15046,8963,32801,38875,0,0,0,0,0,0,0,0,0,0,0,0,0,0
12.151562,8963,32804,38882,0,0,0,0,0,0,0,0,0,0,0,0,0,0
12.169951,8965,32805,38881,0,0,0,0,0,0,0,0,0,0,0,0,0,0
12.172007,8967,32805,38881,0,0,0,0,0,0,0,0,0,0,0,0,0,0
12.189962,8968,32807,38878,0,0,0,0,0,0,0,0,0,0,0,0,0,0
12.192002,8967,32807,38883,0,0,0,0,0,0,0,0,0,0,0,0,0,0
12.209949,8966,32805,38877,0,0,0,0,0,0,0,0,0,0,0,0,0,0
12.212029,8971,32804,38885,0,0,0,0,0,0,0,0,0,0,0,0,0,0
12.221651,8967,32809,38882,0,0,0,0,0,0,0,0,0,0,0,0,0,0
12.240307,8972,32805,38891,0,0,0,0,0,0,0,0,0,0,0,0,0,0
12.241298,8970,32810,38892,0,0,0,0,0,0,0,0,0,0,0,0,0,0
12.260483,8973,32811,38894,0,0,0,0,0,0,0,0,0,0,0,0,0,0
12.26164,8973,32815,38894,0,0,0,0,0,0,0,0,0,0,0,0,0,0
12.279974,8972,32815,38902,0,0,0,0,0,0,0,0,0,0,0,0,0,0
12.281082,8976,32816,38904,0,0,0,0,0,0,0,0,0,0,0,0,0,0
12.300302,8977,32821,38910,0,0,0,0,0,0,0,0,0,0,0,0,0,0
12.301553,8976,32823,38910,0,0,0,0,0,0,0,0,0,0,0,0,0,0
12.322104,8978,32819,38908,0,0,0,0,0,0,0,0,0,0,0,0,0,0
12.323125,8977,32820,38906,0,0,0,0,0,0,0,0,0,0,0,0,0,0
12.340251,8979,32820,38909,0,0,0,0,0,0,0,0,0,0,0,0,0,0
12.34125,8976,32819,38906,0,0,0,0,0,0,0,0,0,0,0,0,0,0
12.352251,8980,32818,38908,0,0,0,0,0,0,0,0,0,0,0,0,0,0
12.370797,8977,32820,38906,0,0,0,0,0,0,0,0,0,0,0,0,0,0
12.371797,8976,32819,38909,0,0,0,0,0,0,0,0,0,0,0,0,0,0
12.390475,8980,32820,38908,0,0,0,0,0,0,0,0,0,0,0,0,0,0
12.391542,8980,32821,38913,0,0,0,0,0,0,0,0,0,0,0,0,0,0
12.41209,8979,32824,38916,0,0,0,0,0,0,0,0,0,0,0,0,0,0
12.41309,8980,32826,38921,0,0,0,0,0,0,0,0,0,0,0,0,0,0
12.432102,8982,32827,38921,0,0,0,0,0,0,0,0,0,0,0,0,0,0
12.433101,8980,32829,38925,0,0,0,0,0,0,0,0,0,0,0,0,0,0
12.449429,8983,32831,38932,0,0,0,0,0,0,0,0,0,0,0,0,0,0
12.451485,8986,32835,38936,0,0,0,0,0,0,0,0,0,0,0,0,0,0
12.470658,8984,32834,38936,0,0,0,0,0,0,0,0,0,0,0,0,0,0
12.472658,8988,32836,38942,0,0,0,0,0,0,0,0,0,0,0,0,0,0
12.490868,8988,32839,38937,0,0,0,0,0,0,0,0,0,0,0,0,0,0
12.491875,8989,32843,38941,0,0,0,0,0,0,0,0,0,0,0,0,0,0
12.50996,8989,32849,38953,0,0,0,0,0,0,0,0,0,0,0,0,0,0
12.51196,8991,32856,38964,0,0,0,0,0,0,0,0,0,0,0,0,0,0
12.530535,8997,32864,38974,0,0,0,0,0,0,0,0,0,0,0,0,0,0
12.531644,8999,32872,38980,0,0,0,0,0,0,0,0,0,0,0,0,0,0
12.550122,8998,32874,38976,0,0,0,0,0,0,0,0,0,0,0,0,0,0
12.551123,8998,32871,38967,0,0,0,0,0,0,0,0,0,0,0,0,0,0
12.570451,8993,32861,38947,0,0,0,0,0,0,0,0,0,0,0,0,0,0
12.571451,8988,32848,38922,0,0,0,0,0,0,0,0,0,0,0,0,0,0
12.591468,8982,32839,38909,0,0,0,0,0,0,0,0,0,0,0,0,0,0
12.59247,8982,32840,38900,0,0,0,0,0,0,0,0,0,0,0,0,0,0
12.610322,8981,32835,38898,0,0,0,0,0,0,0,0,0,0,0,0,0,0
12.611341,8980,32835,38890,0,0,0,0,0,0,0,0,0,0,0,0,0,0
12.620553,8978,32829,38882,0,0,0,0,0,0,0,0,0,0,0,0,0,0
12.640775,8974,32827,38871,0,0,0,0,0,0,0,0,0,0,0,0,0,0
12.641808,8970,32817,38857,0,0,0,0,0,0,0,0,0,0,0,0,0,0
12.660734,8967,32814,38848,0,0,0,0,0,0,0,0,0,0,0,0,0,0
12.661879,8960,32807,38844,0,0,0,0,0,0,0,0,0,0,0,0,0,0
12.680837,8958,32809,38839,0,0,0,0,0,0,0,0,0,0,0,0,0,0
12.681836,8956,32807,38836,0,0,0,0,0,0,0,0,0,0,0,0,0,0
12.701458,8951,32809,38841,0,0,0,0,0,0,0,0,0,0,0,0,0,0
12.703458,8949,32813,38843,0,0,0,0,0,0,0,0,0,0,0,0,0,0
12.721283,8950,32816,38849,0,0,0,0,0,0,0,0,0,0,0,0,0,0
12.722309,8947,32818,38852,0,0,0,0,0,0,0,0,0,0,0,0,0,0
12.741862,8945,32820,38845,0,0,0,0,0,0,0,0,0,0,0,0,0,0
12.742888,8946,32814,38849,0,0,0,0,0,0,0,0,0,0,0,0,0,0
12.752116,8941,32814,38843,0,0,0,0,0,0,0,0,0,0,0,0,0,0
12.770749,8940,32816,38843,0,0,0,0,0,0,0,0,0,0,0,0,0,0
12.772749,8938,32821,38847,0,0,0,0,0,0,0,0,0,0,0,0,0,0
12.79083,8941,32826,38859,0,0,0,0,0,0,0,0,0,0,0,0,0,0
12.791903,8941,32836,38864,0,0,0,0,0,0,0,0,0,0,0,0,0,0
12.811112,8942,32838,38882,0,0,0,0,0,0,0,0,0,0,0,0,0,0
12.812137,8945,32843,38887,0,0,0,0,0,0,0,0,0,0,0,0,0,0
12.829848,8947,32849,38896,0,0,0,0,0,0,0,0,0,0,0,0,0,0
12.831958,8949,32852,38900,0,0,0,0,0,0,0,0,0,0,0,0,0,0
12.850043,8951,32851,38903,0,0,0,0,0,0,0,0,0,0,0,0,0,0
12.851069,8950,32855,38904,0,0,0,0,0,0,0,0,0,0,0,0,0,0
12.872002,8951,32851,38903,0,0,0,0,0,0,0,0,0,0,0,0,0,0
12.873238,8952,32850,38897,0,0,0,0,0,0,0,0,0,0,0,0,0,0
12.890459,8951,32846,38896,0,0,0,0,0,0,0,0,0,0,0,0,0,0
12.891479,8951,32842,38888,0,0,0,0,0,0,0,0,0,0,0,0,0,0
12.910265,8954,32837,38881,0,0,0,0,0,0,0,0,0,0,0,0,0,0
12.912266,8950,32832,38875,0,0,0,0,0,0,0,0,0,0,0,0,0,0
12.930266,8952,32835,38877,0,0,0,0,0,0,0,0,0,0,0,0,0,0
12.931266,8956,32829,38871,0,0,0,0,0,0,0,0,0,0,0,0,0,0
12.949347,8954,32827,38868,0,0,0,0,0,0,0,0,0,0,0,0,0,0
12.952775,8951,32823,38866,0,0,0,0,0,0,0,0,0,0,0,0,0,0
12.970825,8950,32817,38860,0,0,0,0,0,0,0,0,0,0,0,0,0,0
12.971825,8952,32816,38855,0,0,0,0,0,0,0,0,0,0,0,0,0,0
12.981825,8951,32816,38860,0,0,0,0,0,0,0,0,0,0,0,0,0,0
12.982825,8954,32813,38853,0,0,0,0,0,0,0,0,0,0,0,0,0,0
13.000789,8957,32813,38860,0,0,0,0,0,0,0,0,0,0,0,0,0,0
13.022266,8961,32815,38861,0,0,0,0,0,0,0,0,0,0,0,0,0,0
13.024286,8961,32815,38872,0,0,0,0,0,0,0,0,0,0,0,0,0,0
13.041118,8961,32821,38876,0,0,0,0,0,0,0,0,0,0,0,0,0,0
13.042118,8963,32821,38883,0,0,0,0,0,0,0,0,0,0,0,0,0,0
13.061434,8969,32825,38884,0,0,0,0,0,0,0,0,0,0,0,0,0,0
13.062434,8965,32825,38886,0,0,0,0,0,0,0,0,0,0,0,0,0,0
13.081411,8969,32826,38881,0,0,0,0,0,0,0,0,0,0,0,0,0,0
13.082682,8968,32818,38887,0,0,0,0,0,0,0,0,0,0,0,0,0,0
13.100531,8968,32820,38877,0,0,0,0,0,0,0,0,0,0,0,0,0,0
13.10255,8968,32813,38878,0,0,0,0,0,0,0,0,0,0,0,0,0,0
13.120988,8968,32818,38882,0,0,0,0,0,0,0,0,0,0,0,0,0,0
13.122027,8971,32817,38887,0,0,0,0,0,0,0,0,0,0,0,0,0,0
13.1416,8973,32827,38901,0,0,0,0,0,0,0,0,0,0,0,0,0,0
13.1426,8977,32829,38908,0,0,0,0,0,0,0,0,0,0,0,0,0,0
13.160171,8979,32834,38917,0,0,0,0,0,0,0,0,0,0,0,0,0,0
13.161283,8982,32833,38921,0,0,0,0,0,0,0,0,0,0,0,0,0,0
13.181169,8982,32834,38924,0,0,0,0,0,0,0,0,0,0,0,0,0,0
13.182194,8983,32836,38924,0,0,0,0,0,0,0,0,0,0,0,0,0,0
13.200783,8984,32836,38921,0,0,0,0,0,0,0,0,0,0,0,0,0,0
13.201784,8985,32827,38915,0,0,0,0,0,0,0,0,0,0,0,0,0,0
13.222291,8979,32824,38907,0,0,0,0,0,0,0,0,0,0,0,0,0,0
13.223513,8980,32824,38899,0,0,0,0,0,0,0,0,0,0,0,0,0,0
13.229857,8978,32822,38893,0,0,0,0,0,0,0,0,0,0,0,0,0,0
13.250945,8982,32818,38889,0,0,0,0,0,0,0,0,0,0,0,0,0,0
13.252052,8979,32820,38882,0,0,0,0,0,0,0,0,0,0,0,0,0,0
13.270471,8978,32818,38885,0,0,0,0,0,0,0,0,0,0,0,0,0,0
13.27159,8977,32819,38886,0,0,0,0,0,0,0,0,0,0,0,0,0,0
13.291106,8977,32826,38884,0,0,0,0,0,0,0,0,0,0,0,0,0,0
13.292106,8975,32827,38878,0,0,0,0,0,0,0,0,0,0,0,0,0,0
13.310108,8972,32824,38870,0,0,0,0,0,0,0,0,0,0,0,0,0,0
13.311615,8965,32825,38864,0,0,0,0,0,0,0,0,0,0,0,0,0,0
13.331616,8966,32819,38856,0,0,0,0,0,0,0,0,0,0,0,0,0,0
13.332617,8961,32818,38841,0,0,0,0,0,0,0,0,0,0,0,0,0,0
13.351197,8956,32810,38835,0,0,0,0,0,0,0,0,0,0,0,0,0,0
13.352334,8953,32813,38837,0,0,0,0,0,0,0,0,0,0,0,0,0,0
13.371704,8954,32806,38833,0,0,0,0,0,0,0,0,0,0,0,0,0,0
13.372723,8955,32809,38832,0,0,0,0,0,0,0,0,0,0,0,0,0,0
13.389721,8954,32803,38828,0,0,0,0,0,0,0,0,0,0,0,0,0,0
13.391722,8955,32811,38834,0,0,0,0,0,0,0,0,0,0,0,0,0,0
13.409505,8957,32807,38832,0,0,0,0,0,0,0,0,0,0,0,0,0,0
13.411553,8957,32815,38838,0,0,0,0,0,0,0,0,0,0,0,0,0,0
13.431163,8958,32810,38845,0,0,0,0,0,0,0,0,0,0,0,0,0,0
13.432187,8961,32811,38841,0,0,0,0,0,0,0,0,0,0,0,0,0,0
13.450539,8960,32810,38844,0,0,0,0,0,0,0,0,0,0,0,0,0,0
13.451585,8961,32813,38849,0,0,0,0,0,0,0,0,0,0,0,0,0,0
13.461041,8963,32812,38855,0,0,0,0,0,0,0,0,0,0,0,0,0,0
13.48204,8966,32813,38858,0,0,0,0,0,0,0,0,0,0,0,0,0,0
13.483041,8968,32809,38856,0,0,0,0,0,0,0,0,0,0,0,0,0,0
13.499754,8965,32811,38853,0,0,0,0,0,0,0,0,0,0,0,0,0,0
13.501884,8969,32803,38850,0,0,0,0,0,0,0,0,0,0,0,0,0,0
13.520347,8966,32808,38848,0,0,0,0,0,0,0,0,0,0,0,0,0,0
13.521461,8969,32803,38847,0,0,0,0,0,0,0,0,0,0,0,0,0,0
13.540359,8971,32807,38850,0,0,0,0,0,0,0,0,0,0,0,0,0,0
13.54135,8971,32803,38854,0,0,0,0,0,0,0,0,0,0,0,0,0,0
13.559639,8973,32806,38853,0,0,0,0,0,0,0,0,0,0,0,0,0,0
13.561969,8972,32804,38854,0,0,0,0,0,0,0,0,0,0,0,0,0,0
13.580821,8972,32808,38863,0,0,0,0,0,0,0,0,0,0,0,0,0,0
13.581927,8977,32813,38868,0,0,0,0,0,0,0,0,0,0,0,0,0,0
13.599722,8977,32813,38872,0,0,0,0,0,0,0,0,0,0,0,0,0,0
13.601831,8981,32811,38878,0,0,0,0,0,0,0,0,0,0,0,0,0,0
13.619842,8984,32817,38881,0,0,0,0,0,0,0,0,0,0,0,0,0,0
13.621863,8982,32812,38876,0,0,0,0,0,0,0,0,0,0,0,0,0,0
13.641005,8982,32816,38877,0,0,0,0,0,0,0,0,0,0,0,0,0,0
13.642004,8985,32814,38875,0,0,0,0,0,0,0,0,0,0,0,0,0,0
13.659935,8984,32814,38873,0,0,0,0,0,0,0,0,0,0,0,0,0,0
13.66218,8985,32810,38875,0,0,0,0,0,0,0,0,0,0,0,0,0,0
13.679968,8983,32815,38874,0,0,0,0,0,0,0,0,0,0,0,0,0,0
13.680989,8985,32808,38873,0,0,0,0,0,0,0,0,0,0,0,0,0,0
13.689285,8986,32813,38878,0,0,0,0,0,0,0,0,0,0,0,0,0,0
13.710399,8990,32812,38881,0,0,0,0,0,0,0,0,0,0,0,0,0,0
13.711898,8989,32813,38885,0,0,0,0,0,0,0,0,0,0,0,0,0,0
13.732288,8989,32813,38887,0,0,0,0,0,0,0,0,0,0,0,0,0,0
13.737037,8991,32814,38889,0,0,0,0,0,0,0,0,0,0,0,0,0,0
13.750026,8990,32814,38893,0,0,0,0,0,0,0,0,0,0,0,0,0,0
13.751166,8993,32815,38894,0,0,0,0,0,0,0,0,0,0,0,0,0,0
13.77056,8994,32817,38898,0,0,0,0,0,0,0,0,0,0,0,0,0,0
13.77156,8997,32817,38900,0,0,0,0,0,0,0,0,0,0,0,0,0,0
13.790351,8997,32818,38904,0,0,0,0,0,0,0,0,0,0,0,0,0,0
13.792643,8999,32811,38901,0,0,0,0,0,0,0,0,0,0,0,0,0,0
13.810518,8997,32816,38902,0,0,0,0,0,0,0,0,0,0,0,0,0,0
13.811511,8999,32820,38909,0,0,0,0,0,0,0,0,0,0,0,0,0,0
13.821857,9000,32819,38912,0,0,0,0,0,0,0,0,0,0,0,0,0,0
13.830414,9005,32823,38920,0,0,0,0,0,0,0,0,0,0,0,0,0,0
13.850702,9005,32823,38922,0,0,0,0,0,0,0,0,0,0,0,0,0,0
13.852723,9006,32823,38922,0,0,0,0,0,0,0,0,0,0,0,0,0,0
13.86976,9005,32824,38919,0,0,0,0,0,0,0,0,0,0,0,0,0,0
13.871944,9003,32821,38915,0,0,0,0,0,0,0,0,0,0,0,0,0,0
13.891891,9009,32819,38918,0,0,0,0,0,0,0,0,0,0,0,0,0,0
13.89291,9010,32816,38920,0,0,0,0,0,0,0,0,0,0,0,0,0,0
13.910362,9010,32819,38930,0,0,0,0,0,0,0,0,0,0,0,0,0,0
13.911872,9010,32825,38930,0,0,0,0,0,0,0,0,0,0,0,0,0,0
13.93027,9017,32830,38936,0,0,0,0,0,0,0,0,0,0,0,0,0,0
13.931524,9018,32828,38944,0,0,0,0,0,0,0,0,0,0,0,0,0,0
13.949841,9016,32834,38948,0,0,0,0,0,0,0,0,0,0,0,0,0,0
13.950841,9021,32835,38952,0,0,0,0,0,0,0,0,0,0,0,0,0,0
13.97155,9018,32836,38951,0,0,0,0,0,0,0,0,0,0,0,0,0,0
13.972569,9019,32834,38949,0,0,0,0,0,0,0,0,0,0,0,0,0,0
13.990785,9019,32834,38947,0,0,0,0,0,0,0,0,0,0,0,0,0,0
13.991785,9018,32832,38947,0,0,0,0,0,0,0,0,0,0,0,0,0,0
13.999476,9018,32832,38936,0,0,0,0,0,0,0,0,0,0,0,0,0,0
14.020528,9021,32829,38935,0,0,0,0,0,0,0,0,0,0,0,0,0,0
14.021573,9016,32822,38920,0,0,0,0,0,0,0,0,0,0,0,0,0,0
14.040935,9015,32823,38917,0,0,0,0,0,0,0,0,0,0,0,0,0,0
14.041958,9015,32825,38914,0,0,0,0,0,0,0,0,0,0,0,0,0,0
14.060406,9013,32825,38919,0,0,0,0,0,0,0,0,0,0,0,0,0,0
14.061441,9012,32828,38914,0,0,0,0,0,0,0,0,0,0,0,0,0,0
14.080334,9015,32823,38913,0,0,0,0,0,0,0,0,0,0,0,0,0,0
14.081741,9013,32828,38912,0,0,0,0,0,0,0,0,0,0,0,0,0,0
14.099756,9011,32827,38910,0,0,0,0,0,0,0,0,0,0,0,0,0,0
14.101794,9012,32823,38906,0,0,0,0,0,0,0,0,0,0,0,0,0,0
14.119477,9011,32818,38902,0,0,0,0,0,0,0,0,0,0,0,0,0,0
14.122052,9009,32820,38899,0,0,0,0,0,0,0,0,0,0,0,0,0,0
14.142196,9009,32815,38897,0,0,0,0,0,0,0,0,0,0,0,0,0,0
14.143197,9010,32818,38895,0,0,0,0,0,0,0,0,0,0,0,0,0,0
14.161442,9010,32817,38893,0,0,0,0,0,0,0,0,0,0,0,0,0,0
14.162549,9008,32816,38894,0,0,0,0,0,0,0,0,0,0,0,0,0,0
14.180404,9010,32814,38895,0,0,0,0,0,0,0,0,0,0,0,0,0,0
14.181404,9012,32817,38899,0,0,0,0,0,0,0,0,0,0,0,0,0,0
14.201232,9009,32820,38904,0,0,0,0,0,0,0,0,0,0,0,0,0,0
14.202152,9014,32819,38912,0,0,0,0,0,0,0,0,0,0,0,0,0,0
14.220804,9019,32826,38919,0,0,0,0,0,0,0,0,0,0,0,0,0,0
14.221822,9022,32832,38927,0,0,0,0,0,0,0,0,0,0,0,0,0,0
14.232382,9021,32832,38929,0,0,0,0,0,0,0,0,0,0,0,0,0,0
14.249712,9023,32832,38934,0,0,0,0,0,0,0,0,0,0,0,0,0,0
14.251712,9024,32830,38934,0,0,0,0,0,0,0,0,0,0,0,0,0,0
14.271712,9023,32832,38933,0,0,0,0,0,0,0,0,0,0,0,0,0,0
14.272712,9026,32830,38935,0,0,0,0,0,0,0,0,0,0,0,0,0,0
14.291234,9024,32830,38934,0,0,0,0,0,0,0,0,0,0,0,0,0,0
14.292434,9027,32832,38943,0,0,0,0,0,0,0,0,0,0,0,0,0,0
14.312211,9028,32837,38944,0,0,0,0,0,0,0,0,0,0,0,0,0,0
14.313211,9029,32831,38948,0,0,0,0,0,0,0,0,0,0,0,0,0,0
14.331926,9031,32839,38949,0,0,0,0,0,0,0,0,0,0,0,0,0,0
14.33295,9031,32840,38953,0,0,0,0,0,0,0,0,0,0,0,0,0,0
14.35035,9032,32842,38953,0,0,0,0,0,0,0,0,0,0,0,0,0,0
14.351578,9034,32840,38955,0,0,0,0,0,0,0,0,0,0,0,0,0,0
14.372059,9031,32840,38952,0,0,0,0,0,0,0,0,0,0,0,0,0,0
14.374078,9035,32833,38951,0,0,0,0,0,0,0,0,0,0,0,0,0,0
14.389397,9035,32838,38950,0,0,0,0,0,0,0,0,0,0,0,0,0,0
14.391441,9035,32842,38947,0,0,0,0,0,0,0,0,0,0,0,0,0,0
14.410454,9035,32844,38952,0,0,0,0,0,0,0,0,0,0,0,0,0,0
14.41259,9035,32836,38951,0,0,0,0,0,0,0,0,0,0,0,0,0,0
14.431609,9034,32842,38953,0,0,0,0,0,0,0,0,0,0,0,0,0,0
14.432608,9039,32842,38958,0,0,0,0,0,0,0,0,0,0,0,0,0,0
14.45205,9038,32843,38957,0,0,0,0,0,0,0,0,0,0,0,0,0,0
14.45305,9040,32839,38962,0,0,0,0,0,0,0,0,0,0,0,0,0,0
14.460382,9039,32839,38960,0,0,0,0,0,0,0,0,0,0,0,0,0,0
14.480656,9043,32838,38957,0,0,0,0,0,0,0,0,0,0,0,0,0,0
14.48169,9036,32841,38957,0,0,0,0,0,0,0,0,0,0,0,0,0,0
14.500347,9038,32842,38957,0,0,0,0,0,0,0,0,0,0,0,0,0,0
14.501454,9035,32840,38959,0,0,0,0,0,0,0,0,0,0,0,0,0,0
14.522255,9042,32837,38960,0,0,0,0,0,0,0,0,0,0,0,0,0,0
14.523255,9042,32839,38959,0,0,0,0,0,0,0,0,0,0,0,0,0,0
14.541982,9044,32837,38958,0,0,0,0,0,0,0,0,0,0,0,0,0,0
14.543013,9040,32836,38960,0,0,0,0,0,0,0,0,0,0,0,0,0,0
14.560093,9043,32832,38962,0,0,0,0,0,0,0,0,0,0,0,0,0,0
14.561121,9040,32838,38964,0,0,0,0,0,0,0,0,0,0,0,0,0,0
14.581997,9043,32840,38966,0,0,0,0,0,0,0,0,0,0,0,0,0,0
14.583183,9040,32839,38964,0,0,0,0,0,0,0,0,0,0,0,0,0,0
14.600362,9044,32838,38958,0,0,0,0,0,0,0,0,0,0,0,0,0,0
14.601459,9041,32839,38960,0,0,0,0,0,0,0,0,0,0,0,0,0,0
14.622038,9044,32836,38963,0,0,0,0,0,0,0,0,0,0,0,0,0,0
14.623038,9041,32835,38961,0,0,0,0,0,0,0,0,0,0,0,0,0,0
14.639698,9042,32837,38960,0,0,0,0,0,0,0,0,0,0,0,0,0,0
14.641857,9044,32832,38961,0,0,0,0,0,0,0,0,0,0,0,0,0,0
14.660041,9048,32839,38964,0,0,0,0,0,0,0,0,0,0,0,0,0,0
14.661154,9043,32835,38963,0,0,0,0,0,0,0,0,0,0,0,0,0,0
14.681196,9046,32833,38963,0,0,0,0,0,0,0,0,0,0,0,0,0,0
14.682196,9045,32836,38962,0,0,0,0,0,0,0,0,0,0,0,0,0,0
14.691098,9047,32832,38959,0,0,0,0,0,0,0,0,0,0,0,0,0,0
14.692099,9041,32830,38956,0,0,0,0,0,0,0,0,0,0,0,0,0,0
14.710099,9043,32824,38954,0,0,0,0,0,0,0,0,0,0,0,0,0,0
14.731955,9041,32826,38944,0,0,0,0,0,0,0,0,0,0,0,0,0,0
14.732955,9048,32821,38943,0,0,0,0,0,0,0,0,0,0,0,0,0,0
14.75139,9040,32823,38945,0,0,0,0,0,0,0,0,0,0,0,0,0,0
14.752389,9047,32825,38949,0,0,0,0,0,0,0,0,0,0,0,0,0,0
14.770059,9043,32831,38955,0,0,0,0,0,0,0,0,0,0,0,0,0,0
14.772059,9048,32830,38960,0,0,0,0,0,0,0,0,0,0,0,0,0,0
14.790678,9046,32833,38962,0,0,0,0,0,0,0,0,0,0,0,0,0,0
14.791678,9052,32837,38961,0,0,0,0,0,0,0,0,0,0,0,0,0,0
14.809681,9046,32834,38961,0,0,0,0,0,0,0,0,0,0,0,0,0,0
14.811681,9048,32834,38962,0,0,0,0,0,0,0,0,0,0,0,0,0,0
14.830507,9048,32836,38956,0,0,0,0,0,0,0,0,0,0,0,0,0,0
14.831521,9051,32834,38955,0,0,0,0,0,0,0,0,0,0,0,0,0,0
14.84966,9050,32834,38952,0,0,0,0,0,0,0,0,0,0,0,0,0,0
14.851767,9051,32832,38951,0,0,0,0,0,0,0,0,0,0,0,0,0,0
14.87203,9049,32831,38949,0,0,0,0,0,0,0,0,0,0,0,0,0,0
14.873049,9049,32828,38945,0,0,0,0,0,0,0,0,0,0,0,0,0,0
14.890941,9046,32825,38945,0,0,0,0,0,0,0,0,0,0,0,0,0,0
14.891947,9049,32822,38943,0,0,0,0,0,0,0,0,0,0,0,0,0,0
14.909909,9047,32822,38943,0,0,0,0,0,0,0,0,0,0,0,0,0,0
14.911945,9050,32824,38948,0,0,0,0,0,0,0,0,0,0,0,0,0,0
14.931912,9049,32831,38953,0,0,0,0,0,0,0,0,0,0,0,0,0,0
14.933018,9049,32832,38960,0,0,0,0,0,0,0,0,0,0,0,0,0,0
14.941991,9053,32833,38962,0,0,0,0,0,0,0,0,0,0,0,0,0,0
14.960167,9049,32838,38967,0,0,0,0,0,0,0,0,0,0,0,0,0,0
14.961166,9056,32841,38969,0,0,0,0,0,0,0,0,0,0,0,0,0,0
14.982167,9055,32831,38969,0,0,0,0,0,0,0,0,0,0,0,0,0,0
14.98339,9054,32837,38966,0,0,0,0,0,0,0,0,0,0,0,0,0,0
14.999992,9055,32835,38969,0,0,0,0,0,0,0,0,0,0,0,0,0,0
15.002089,9058,32839,38966,0,0,0,0,0,0,0,0,0,0,0,0,0,0
15.019962,9058,32836,38969,0,0,0,0,0,0,0,0,0,0,0,0,0,0
15.021982,9057,32841,38974,0,0,0,0,0,0,0,0,0,0,0,0,0,0
15.04061,9062,32841,38975,0,0,0,0,0,0,0,0,0,0,0,0,0,0
15.041612,9064,32839,38985,0,0,0,0,0,0,0,0,0,0,0,0,0,0
15.059465,9057,32842,38982,0,0,0,0,0,0,0,0,0,0,0,0,0,0
15.061546,9062,32845,38986,0,0,0,0,0,0,0,0,0,0,0,0,0,0
15.081432,9062,32844,38986,0,0,0,0,0,0,0,0,0,0,0,0,0,0
15.082462,9067,32848,38994,0,0,0,0,0,0,0,0,0,0,0,0,0,0
15.10035,9068,32847,38991,0,0,0,0,0,0,0,0,0,0,0,0,0,0
15.101352,9064,32848,38991,0,0,0,0,0,0,0,0,0,0,0,0,0,0
15.120349,9065,32848,38992,0,0,0,0,0,0,0,0,0,0,0,0,0,0
15.12137,9067,32845,38993,0,0,0,0,0,0,0,0,0,0,0,0,0,0
15.140179,9066,32848,38988,0,0,0,0,0,0,0,0,0,0,0,0,0,0
15.142366,9065,32844,38994,0,0,0,0,0,0,0,0,0,0,0,0,0,0
15.159635,9068,32844,38988,0,0,0,0,0,0,0,0,0,0,0,0,0,0
15.161678,9069,32845,38991,0,0,0,0,0,0,0,0,0,0,0,0,0,0
15.17204,9069,32843,38989,0,0,0,0,0,0,0,0,0,0,0,0,0,0
15.189889,9066,32841,38989,0,0,0,0,0,0,0,0,0,0,0,0,0,0
15.191935,9065,32841,38987,0,0,0,0,0,0,0,0,0,0,0,0,0,0
15.209787,9069,32843,38995,0,0,0,0,0,0,0,0,0,0,0,0,0,0
15.21181,9071,32844,38993,0,0,0,0,0,0,0,0,0,0,0,0,0,0
15.230259,9070,32844,38997,0,0,0,0,0,0,0,0,0,0,0,0,0,0
15.231574,9069,32843,38996,0,0,0,0,0,0,0,0,0,0,0,0,0,0
15.251094,9067,32844,38998,0,0,0,0,0,0,0,0,0,0,0,0,0,0
15.252115,9069,32843,39000,0,0,0,0,0,0,0,0,0,0,0,0,0,0
15.272121,9070,32845,39003,0,0,0,0,0,0,0,0,0,0,0,0,0,0
15.273146,9071,32845,39005,0,0,0,0,0,0,0,0,0,0,0,0,0,0
15.290834,9072,32849,39008,0,0,0,0,0,0,0,0,0,0,0,0,0,0
15.291833,9074,32848,39014,0,0,0,0,0,0,0,0,0,0,0,0,0,0
15.311528,9073,32851,39011,0,0,0,0,0,0,0,0,0,0,0,0,0,0
15.31267,9072,32849,39011,0,0,0,0,0,0,0,0,0,0,0,0,0,0
15.330673,9075,32846,39005,0,0,0,0,0,0,0,0,0,0,0,0,0,0
15.3317,9075,32847,38998,0,0,0,0,0,0,0,0,0,0,0,0,0,0
15.34996,9072,32844,38999,0,0,0,0,0,0,0,0,0,0,0,0,0,0
15.351066,9068,32845,38993,0,0,0,0,0,0,0,0,0,0,0,0,0,0
15.371032,9071,32843,38999,0,0,0,0,0,0,0,0,0,0,0,0,0,0
15.372054,9073,32846,39001,0,0,0,0,0,0,0,0,0,0,0,0,0,0
15.389713,9074,32850,39007,0,0,0,0,0,0,0,0,0,0,0,0,0,0
15.39178,9076,32850,39006,0,0,0,0,0,0,0,0,0,0,0,0,0,0
15.399552,9078,32851,39011,0,0,0,0,0,0,0,0,0,0,0,0,0,0
15.420168,9076,32849,39008,0,0,0,0,0,0,0,0,0,0,0,0,0,0
15.421168,9076,32846,39001,0,0,0,0,0,0,0,0,0,0,0,0,0,0
15.439907,9076,32842,38995,0,0,0,0,0,0,0,0,0,0,0,0,0,0
15.441911,9074,32839,38994,0,0,0,0,0,0,0,0,0,0,0,0,0,0
15.460403,9071,32835,38987,0,0,0,0,0,0,0,0,0,0,0,0,0,0
15.461559,9071,32833,38982,0,0,0,0,0,0,0,0,0,0,0,0,0,0
15.482838,9070,32827,38975,0,0,0,0,0,0,0,0,0,0,0,0,0,0
15.483866,9070,32829,38971,0,0,0,0,0,0,0,0,0,0,0,0,0,0
15.501878,9070,32825,38967,0,0,0,0,0,0,0,0,0,0,0,0,0,0
15.50288,9072,32831,38974,0,0,0,0,0,0,0,0,0,0,0,0,0,0
15.521879,9072,32838,38976,0,0,0,0,0,0,0,0,0,0,0,0,0,0
15.522906,9074,32836,38977,0,0,0,0,0,0,0,0,0,0,0,0,0,0
15.540423,9069,32836,38978,0,0,0,0,0,0,0,0,0,0,0,0,0,0
15.542426,9071,32836,38976,0,0,0,0,0,0,0,0,0,0,0,0,0,0
15.56205,9067,32837,38969,0,0,0,0,0,0,0,0,0,0,0,0,0,0
15.563077,9067,32826,38959,0,0,0,0,0,0,0,0,0,0,0,0,0,0
15.582319,9067,32826,38953,0,0,0,0,0,0,0,0,0,0,0,0,0,0
15.583351,9065,32827,38946,0,0,0,0,0,0,0,0,0,0,0,0,0,0
15.600986,9064,32824,38946,0,0,0,0,0,0,0,0,0,0,0,0,0,0
15.602019,9062,32820,38943,0,0,0,0,0,0,0,0,0,0,0,0,0,0
15.620163,9061,32821,38941,0,0,0,0,0,0,0,0,0,0,0,0,0,0
15.621167,9067,32818,38942,0,0,0,0,0,0,0,0,0,0,0,0,0,0
15.63117,9059,32820,38942,0,0,0,0,0,0,0,0,0,0,0,0,0,0
15.63217,9065,32818,38940,0,0,0,0,0,0,0,0,0,0,0,0,0,0
15.650679,9062,32817,38940,0,0,0,0,0,0,0,0,0,0,0,0,0,0
15.669664,9067,32819,38944,0,0,0,0,0,0,0,0,0,0,0,0,0,0
15.671663,9065,32820,38947,0,0,0,0,0,0,0,0,0,0,0,0,0,0
15.690006,9069,32823,38954,0,0,0,0,0,0,0,0,0,0,0,0,0,0
15.692409,9064,32827,38959,0,0,0,0,0,0,0,0,0,0,0,0,0,0
15.710336,9071,32827,38962,0,0,0,0,0,0,0,0,0,0,0,0,0,0
15.711453,9069,32826,38958,0,0,0,0,0,0,0,0,0,0,0,0,0,0
15.730607,9070,32824,38954,0,0,0,0,0,0,0,0,0,0,0,0,0,0
15.731627,9073,32822,38951,0,0,0,0,0,0,0,0,0,0,0,0,0,0
15.751955,9070,32824,38949,0,0,0,0,0,0,0,0,0,0,0,0,0,0
15.752978,9067,32822,38956,0,0,0,0,0,0,0,0,0,0,0,0,0,0
15.77141,9072,32825,38959,0,0,0,0,0,0,0,0,0,0,0,0,0,0
15.772437,9066,32827,38960,0,0,0,0,0,0,0,0,0,0,0,0,0,0
15.790345,9071,32831,38967,0,0,0,0,0,0,0,0,0,0,0,0,0,0
15.791369,9074,32836,38973,0,0,0,0,0,0,0,0,0,0,0,0,0,0
15.812325,9071,32831,38975,0,0,0,0,0,0,0,0,0,0,0,0,0,0
15.814326,9078,32835,38975,0,0,0,0,0,0,0,0,0,0,0,0,0,0
15.831119,9073,32835,38975,0,0,0,0,0,0,0,0,0,0,0,0,0,0
15.832156,9071,32835,38975,0,0,0,0,0,0,0,0,0,0,0,0,0,0
15.850358,9073,32835,38978,0,0,0,0,0,0,0,0,0,0,0,0,0,0
15.852354,9074,32835,38974,0,0,0,0,0,0,0,0,0,0,0,0,0,0
15.871533,9074,32833,38972,0,0,0,0,0,0,0,0,0,0,0,0,0,0
15.872556,9071,32829,38967,0,0,0,0,0,0,0,0,0,0,0,0,0,0
15.881555,9070,32824,38961,0,0,0,0,0,0,0,0,0,0,0,0,0,0
15.900556,9062,32823,38951,0,0,0,0,0,0,0,0,0,0,0,0,0,0
15.901556,9060,32813,38933,0,0,0,0,0,0,0,0,0,0,0,0,0,0
15.921797,9049,32805,38915,0,0,0,0,0,0,0,0,0,0,0,0,0,0
15.923814,9042,32799,38900,0,0,0,0,0,0,0,0,0,0,0,0,0,0
15.940427,9034,32793,38883,0,0,0,0,0,0,0,0,0,0,0,0,0,0
15.94243,9026,32789,38875,0,0,0,0,0,0,0,0,0,0,0,0,0,0
15.961288,9014,32787,38863,0,0,0,0,0,0,0,0,0,0,0,0,0,0
15.962308,9006,32786,38851,0,0,0,0,0,0,0,0,0,0,0,0,0,0
15.980061,8999,32785,38851,0,0,0,0,0,0,0,0,0,0,0,0,0,0
15.981061,8996,32794,38860,0,0,0,0,0,0,0,0,0,0,0,0,0,0
16.002062,8993,32807,38873,0,0,0,0,0,0,0,0,0,0,0,0,0,0
16.003061,8996,32815,38890,0,0,0,0,0,0,0,0,0,0,0,0,0,0
16.019568,8993,32827,38907,0,0,0,0,0,0,0,0,0,0,0,0,0,0
16.02157,8996,32837,38923,0,0,0,0,0,0,0,0,0,0,0,0,0,0
16.040683,8995,32844,38932,0,0,0,0,0,0,0,0,0,0,0,0,0,0
16.041839,9000,32851,38944,0,0,0,0,0,0,0,0,0,0,0,0,0,0
16.060372,9002,32861,38957,0,0,0,0,0,0,0,0,0,0,0,0,0,0
16.061368,9004,32864,38971,0,0,0,0,0,0,0,0,0,0,0,0,0,0
16.081568,9006,32871,38982,0,0,0,0,0,0,0,0,0,0,0,0,0,0
16.082594,9007,32880,38992,0,0,0,0,0,0,0,0,0,0,0,0,0,0
16.099432,9014,32881,39001,0,0,0,0,0,0,0,0,0,0,0,0,0,0
16.101612,9014,32888,39011,0,0,0,0,0,0,0,0,0,0,0,0,0,0
16.110985,9015,32889,39016,0,0,0,0,0,0,0,0,0,0,0,0,0,0
16.12956,9014,32895,39021,0,0,0,0,0,0,0,0,0,0,0,0,0,0
16.13156,9014,32896,39021,0,0,0,0,0,0,0,0,0,0,0,0,0,0
16.150799,9012,32902,39025,0,0,0,0,0,0,0,0,0,0,0,0,0,0
16.151907,9016,32905,39037,0,0,0,0,0,0,0,0,0,0,0,0,0,0
16.160783,9014,32916,39043,0,0,0,0,0,0,0,0,0,0,0,0,0,0
16.180439,9014,32921,39053,0,0,0,0,0,0,0,0,0,0,0,0,0,0
16.181623,9020,32922,39063,0,0,0,0,0,0,0,0,0,0,0,0,0,0
16.200656,9019,32934,39075,0,0,0,0,0,0,0,0,0,0,0,0,0,0
16.201685,9020,32935,39079,0,0,0,0,0,0,0,0,0,0,0,0,0,0
16.220194,9020,32947,39088,0,0,0,0,0,0,0,0,0,0,0,0,0,0
16.222198,9022,32965,39104,0,0,0,0,0,0,0,0,0,0,0,0,0,0
16.240968,9025,32984,39132,0,0,0,0,0,0,0,0,0,0,0,0,0,0
16.242006,9031,33015,39159,0,0,0,0,0,0,0,0,0,0,0,0,0,0
16.25969,9038,33044,39198,0,0,0,0,0,0,0,0,0,0,0,0,0,0
16.261802,9042,33075,39225,0,0,0,0,0,0,0,0,0,0,0,0,0,0
16.280573,9050,33114,39261,0,0,0,0,0,0,0,0,0,0,0,0,0,0
16.28168,9054,33150,39294,0,0,0,0,0,0,0,0,0,0,0,0,0,0
16.300267,9062,33192,39337,0,0,0,0,0,0,0,0,0,0,0,0,0,0
16.301259,9070,33241,39373,0,0,0,0,0,0,0,0,0,0,0,0,0,0
16.320249,9076,33282,39401,0,0,0,0,0,0,0,0,0,0,0,0,0,0
16.321372,0,0,0,0,0,0,0,0,0,0,0,0,0,0,0,0,0
16.339962,9084,33316,39423,0,0,0,0,0,0,0,0,0,0,0,0,0,0
16.341591,9082,33343,39436,0,0,0,0,0,0,0,0,0,0,0,0,0,0
16.361238,9079,33351,39429,0,0,0,0,0,0,0,0,0,0,0,0,0,0
16.363261,9074,33351,39415,0,0,0,0,0,0,0,0,0,0,0,0,0,0
16.380189,9069,33352,39404,0,0,0,0,0,0,0,0,0,0,0,0,0,0
16.381367,9059,33351,39393,0,0,0,0,0,0,0,0,0,0,0,0,0,0
16.390945,9056,33351,39386,0,0,0,0,0,0,0,0,0,0,0,0,0,0
16.391977,9046,33354,39384,0,0,0,0,0,0,0,0,0,0,0,0,0,0
16.410093,9038,33355,39372,0,0,0,0,0,0,0,0,0,0,0,0,0,0
16.432181,9017,33355,39369,0,0,0,0,0,0,0,0,0,0,0,0,0,0
16.433181,9005,33361,39354,0,0,0,0,0,0,0,0,0,0,0,0,0,0
16.451487,8989,33364,39356,0,0,0,0,0,0,0,0,0,0,0,0,0,0
16.452588,8975,33368,39352,0,0,0,0,0,0,0,0,0,0,0,0,0,0
16.470084,8969,33381,39356,0,0,0,0,0,0,0,0,0,0,0,0,0,0
16.472501,8958,33391,39356,0,0,0,0,0,0,0,0,0,0,0,0,0,0
16.491907,8954,33394,39358,0,0,0,0,0,0,0,0,0,0,0,0,0,0
16.492907,8950,33403,39363,0,0,0,0,0,0,0,0,0,0,0,0,0,0
16.510231,8947,33408,39369,0,0,0,0,0,0,0,0,0,0,0,0,0,0
16.512245,8945,33415,39372,0,0,0,0,0,0,0,0,0,0,0,0,0,0
16.529926,8943,33420,39367,0,0,0,0,0,0,0,0,0,0,0,0,0,0
16.531412,8935,33419,39360,0,0,0,0,0,0,0,0,0,0,0,0,0,0
16.55097,8932,33415,39360,0,0,0,0,0,0,0,0,0,0,0,0,0,0
16.551994,8926,33413,39341,0,0,0,0,0,0,0,0,0,0,0,0,0,0
16.570058,8921,33411,39334,0,0,0,0,0,0,0,0,0,0,0,0,0,0
16.572058,8914,33409,39328,0,0,0,0,0,0,0,0,0,0,0,0,0,0
16.591313,8913,33410,39333,0,0,0,0,0,0,0,0,0,0,0,0,0,0
16.592313,8909,33423,39341,0,0,0,0,0,0,0,0,0,0,0,0,0,0
16.610279,8911,33424,39347,0,0,0,0,0,0,0,0,0,0,0,0,0,0
16.611279,8906,33422,39341,0,0,0,0,0,0,0,0,0,0,0,0,0,0
16.631791,8907,33420,39333,0,0,0,0,0,0,0,0,0,0,0,0,0,0
16.632791,8899,33415,39328,0,0,0,0,0,0,0,0,0,0,0,0,0,0
16.641511,8893,33412,39325,0,0,0,0,0,0,0,0,0,0,0,0,0,0
16.661356,8887,33411,39318,0,0,0,0,0,0,0,0,0,0,0,0,0,0
16.662352,8884,33414,39324,0,0,0,0,0,0,0,0,0,0,0,0,0,0
16.680573,8885,33422,39340,0,0,0,0,0,0,0,0,0,0,0,0,0,0
16.682574,8887,33431,39357,0,0,0,0,0,0,0,0,0,0,0,0,0,0
16.700063,8887,33442,39371,0,0,0,0,0,0,0,0,0,0,0,0,0,0
16.70109,8891,33448,39390,0,0,0,0,0,0,0,0,0,0,0,0,0,0
16.720346,8890,33453,39407,0,0,0,0,0,0,0,0,0,0,0,0,0,0
16.721849,8888,33453,39420,0,0,0,0,0,0,0,0,0,0,0,0,0,0
16.740784,8888,33449,39429,0,0,0,0,0,0,0,0,0,0,0,0,0,0
16.742301,8886,33446,39437,0,0,0,0,0,0,0,0,0,0,0,0,0,0
16.760303,8882,33438,39440,0,0,0,0,0,0,0,0,0,0,0,0,0,0
16.761303,8881,33428,39451,0,0,0,0,0,0,0,0,0,0,0,0,0,0
16.780311,8874,33424,39451,0,0,0,0,0,0,0,0,0,0,0,0,0,0
16.781311,8866,33409,39456,0,0,0,0,0,0,0,0,0,0,0,0,0,0
16.799585,8862,33388,39448,0,0,0,0,0,0,0,0,0,0,0,0,0,0
16.801613,8856,33363,39442,0,0,0,0,0,0,0,0,0,0,0,0,0,0
16.819502,8852,33337,39425,0,0,0,0,0,0,0,0,0,0,0,0,0,0
16.821651,8850,33329,39415,0,0,0,0,0,0,0,0,0,0,0,0,0,0
16.84199,8846,33320,39417,0,0,0,0,0,0,0,0,0,0,0,0,0,0
16.843185,8843,33314,39416,0,0,0,0,0,0,0,0,0,0,0,0,0,0
16.86047,8846,33305,39419,0,0,0,0,0,0,0,0,0,0,0,0,0,0
16.86153,8840,33294,39423,0,0,0,0,0,0,0,0,0,0,0,0,0,0
16.870045,8835,33284,39431,0,0,0,0,0,0,0,0,0,0,0,0,0,0
16.890316,8832,33281,39437,0,0,0,0,0,0,0,0,0,0,0,0,0,0
16.892313,8831,33277,39445,0,0,0,0,0,0,0,0,0,0,0,0,0,0
16.912408,8833,33272,39460,0,0,0,0,0,0,0,0,0,0,0,0,0,0
16.91345,8837,33277,39478,0,0,0,0,0,0,0,0,0,0,0,0,0,0
16.931958,8836,33275,39492,0,0,0,0,0,0,0,0,0,0,0,0,0,0
16.932959,8836,33272,39498,0,0,0,0,0,0,0,0,0,0,0,0,0,0
16.949466,8830,33258,39497,0,0,0,0,0,0,0,0,0,0,0,0,0,0
16.951466,8824,33251,39500,0,0,0,0,0,0,0,0,0,0,0,0,0,0
16.970466,8818,33244,39501,0,0,0,0,0,0,0,0,0,0,0,0,0,0
16.971466,8817,33247,39498,0,0,0,0,0,0,0,0,0,0,0,0,0,0
16.991462,8814,33248,39501,0,0,0,0,0,0,0,0,0,0,0,0,0,0
16.992752,8811,33251,39509,0,0,0,0,0,0,0,0,0,0,0,0,0,0
17.011047,8804,33249,39511,0,0,0,0,0,0,0,0,0,0,0,0,0,0
17.013066,8790,33237,39500,0,0,0,0,0,0,0,0,0,0,0,0,0,0
17.032143,8770,33217,39473,0,0,0,0,0,0,0,0,0,0,0,0,0,0
17.03325,8749,33186,39437,0,0,0,0,0,0,0,0,0,0,0,0,0,0
17.051639,8720,33155,39400,0,0,0,0,0,0,0,0,0,0,0,0,0,0
17.052639,8692,33116,39380,0,0,0,0,0,0,0,0,0,0,0,0,0,0
17.071836,8669,33070,39347,0,0,0,0,0,0,0,0,0,0,0,0,0,0
17.072836,8645,33036,39321,0,0,0,0,0,0,0,0,0,0,0,0,0,0
17.090691,8628,33008,39290,0,0,0,0,0,0,0,0,0,0,0,0,0,0
17.091946,8609,32979,39248,0,0,0,0,0,0,0,0,0,0,0,0,0,0
17.100349,8595,32939,39200,0,0,0,0,0,0,0,0,0,0,0,0,0,0
17.122129,8572,32901,39149,0,0,0,0,0,0,0,0,0,0,0,0,0,0
17.123358,8556,32869,39100,0,0,0,0,0,0,0,0,0,0,0,0,0,0
17.142359,8540,32843,39071,0,0,0,0,0,0,0,0,0,0,0,0,0,0
17.143867,8521,32828,39043,0,0,0,0,0,0,0,0,0,0,0,0,0,0
17.160567,8510,32813,39024,0,0,0,0,0,0,0,0,0,0,0,0,0,0
17.161566,8495,32805,39010,0,0,0,0,0,0,0,0,0,0,0,0,0,0
17.182261,8479,32797,38997,0,0,0,0,0,0,0,0,0,0,0,0,0,0
17.183261,8468,32794,38987,0,0,0,0,0,0,0,0,0,0,0,0,0,0
17.200402,8455,32789,38988,0,0,0,0,0,0,0,0,0,0,0,0,0,0
17.201422,8442,32797,38987,0,0,0,0,0,0,0,0,0,0,0,0,0,0
17.219468,8437,32805,38992,0,0,0,0,0,0,0,0,0,0,0,0,0,0
17.221469,8427,32811,38998,0,0,0,0,0,0,0,0,0,0,0,0,0,0
17.242483,8421,32817,39016,0,0,0,0,0,0,0,0,0,0,0,0,0,0
17.244485,8420,32834,39026,0,0,0,0,0,0,0,0,0,0,0,0,0,0
17.259677,8421,32844,39045,0,0,0,0,0,0,0,0,0,0,0,0,0,0
17.261714,8420,32846,39055,0,0,0,0,0,0,0,0,0,0,0,0,0,0
17.280246,8419,32856,39072,0,0,0,0,0,0,0,0,0,0,0,0,0,0
17.281247,8424,32865,39084,0,0,0,0,0,0,0,0,0,0,0,0,0,0
17.290846,8427,32882,39121,0,0,0,0,0,0,0,0,0,0,0,0,0,0
17.311583,8436,32899,39147,0,0,0,0,0,0,0,0,0,0,0,0,0,0
17.312608,8441,32908,39178,0,0,0,0,0,0,0,0,0,0,0,0,0,0
17.330272,8444,32912,39184,0,0,0,0,0,0,0,0,0,0,0,0,0,0
17.331272,8442,32903,39174,0,0,0,0,0,0,0,0,0,0,0,0,0,0
17.35108,8434,32885,39141,0,0,0,0,0,0,0,0,0,0,0,0,0,0
17.352103,8422,32854,39105,0,0,0,0,0,0,0,0,0,0,0,0,0,0
17.372103,8401,32810,39052,0,0,0,0,0,0,0,0,0,0,0,0,0,0
17.373104,8377,32756,38990,0,0,0,0,0,0,0,0,0,0,0,0,0,0
17.389691,8352,32692,38910,0,0,0,0,0,0,0,0,0,0,0,0,0,0
17.391872,8327,32584,38806,0,0,0,0,0,0,0,0,0,0,0,0,0,0
17.409511,8300,32443,38663,0,0,0,0,0,0,0,0,0,0,0,0,0,0
17.411863,8282,32304,38524,0,0,0,0,0,0,0,0,0,0,0,0,0,0
17.431375,8266,32204,38420,0,0,0,0,0,0,0,0,0,0,0,0,0,0
17.432399,8259,32138,38348,0,0,0,0,0,0,0,0,0,0,0,0,0,0
17.451009,8243,32087,38298,0,0,0,0,0,0,0,0,0,0,0,0,0,0
17.452009,8227,32026,38274,0,0,0,0,0,0,0,0,0,0,0,0,0,0
17.462009,8212,31975,38259,0,0,0,0,0,0,0,0,0,0,0,0,0,0
17.481114,8200,31940,38247,0,0,0,0,0,0,0,0,0,0,0,0,0,0
17.482133,8188,31933,38247,0,0,0,0,0,0,0,0,0,0,0,0,0,0
17.499981,8179,31934,38275,0,0,0,0,0,0,0,0,0,0,0,0,0,0
17.502057,8170,31961,38314,0,0,0,0,0,0,0,0,0,0,0,0,0,0
17.520108,8168,31991,38347,0,0,0,0,0,0,0,0,0,0,0,0,0,0
17.522108,8161,32008,38365,0,0,0,0,0,0,0,0,0,0,0,0,0,0
17.539625,8157,32020,38393,0,0,0,0,0,0,0,0,0,0,0,0,0,0
17.541624,8149,32023,38412,0,0,0,0,0,0,0,0,0,0,0,0,0,0
17.561961,8148,32029,38431,0,0,0,0,0,0,0,0,0,0,0,0,0,0
17.562962,8146,32037,38436,0,0,0,0,0,0,0,0,0,0,0,0,0,0
17.580419,8141,32044,38456,0,0,0,0,0,0,0,0,0,0,0,0,0,0
17.581442,8136,32053,38456,0,0,0,0,0,0,0,0,0,0,0,0,0,0
17.599743,8131,32060,38460,0,0,0,0,0,0,0,0,0,0,0,0,0,0
17.601769,8126,32064,38462,0,0,0,0,0,0,0,0,0,0,0,0,0,0
17.621614,8121,32069,38472,0,0,0,0,0,0,0,0,0,0,0,0,0,0
17.622633,8114,32079,38472,0,0,0,0,0,0,0,0,0,0,0,0,0,0
17.640774,8106,32082,38480,0,0,0,0,0,0,0,0,0,0,0,0,0,0
17.642118,8102,32086,38482,0,0,0,0,0,0,0,0,0,0,0,0,0,0
17.660245,8097,32095,38493,0,0,0,0,0,0,0,0,0,0,0,0,0,0
17.661355,8094,32106,38503,0,0,0,0,0,0,0,0,0,0,0,0,0,0
17.679514,8093,32118,38523,0,0,0,0,0,0,0,0,0,0,0,0,0,0
17.681096,8091,32130,38536,0,0,0,0,0,0,0,0,0,0,0,0,0,0
17.691607,8094,32151,38567,0,0,0,0,0,0,0,0,0,0,0,0,0,0
17.709608,8097,32178,38598,0,0,0,0,0,0,0,0,0,0,0,0,0,0
17.711609,8105,32211,38637,0,0,0,0,0,0,0,0,0,0,0,0,0,0
17.731116,8102,32236,38650,0,0,0,0,0,0,0,0,0,0,0,0,0,0
17.733116,8096,32258,38670,0,0,0,0,0,0,0,0,0,0,0,0,0,0
17.750255,8092,32278,38687,0,0,0,0,0,0,0,0,0,0,0,0,0,0
17.751422,8081,32280,38708,0,0,0,0,0,0,0,0,0,0,0,0,0,0
17.769445,8057,32286,38725,0,0,0,0,0,0,0,0,0,0,0,0,0,0
17.772446,8035,32289,38736,0,0,0,0,0,0,0,0,0,0,0,0,0,0
17.79047,8007,32289,38716,0,0,0,0,0,0,0,0,0,0,0,0,0,0
17.79147,7983,32286,38647,0,0,0,0,0,0,0,0,0,0,0,0,0,0
17.811671,7953,32237,38554,0,0,0,0,0,0,0,0,0,0,0,0,0,0
17.816392,7908,32116,38500,0,0,0,0,0,0,0,0,0,0,0,0,0,0
17.830301,7838,32012,38470,0,0,0,0,0,0,0,0,0,0,0,0,0,0
17.831302,7747,31948,38460,0,0,0,0,0,0,0,0,0,0,0,0,0,0
17.849713,7670,31858,38383,0,0,0,0,0,0,0,0,0,0,0,0,0,0
17.851756,7631,31750,38321,0,0,0,0,0,0,0,0,0,0,0,0,0,0
17.871799,7612,31695,38277,0,0,0,0,0,0,0,0,0,0,0,0,0,0
17.872825,7596,31658,38235,0,0,0,0,0,0,0,0,0,0,0,0,0,0
17.891238,7582,31635,38210,0,0,0,0,0,0,0,0,0,0,0,0,0,0
17.892723,7567,31604,38181,0,0,0,0,0,0,0,0,0,0,0,0,0,0
17.909622,7555,31596,38168,0,0,0,0,0,0,0,0,0,0,0,0,0,0
17.911623,7545,31587,38163,0,0,0,0,0,0,0,0,0,0,0,0,0,0
17.920359,7533,31586,38156,0,0,0,0,0,0,0,0,0,0,0,0,0,0
17.939887,7515,31572,38136,0,0,0,0,0,0,0,0,0,0,0,0,0,0
17.942394,7497,31560,38114,0,0,0,0,0,0,0,0,0,0,0,0,0,0
17.960495,7479,31544,38095,0,0,0,0,0,0,0,0,0,0,0,0,0,0
17.9616,7465,31538,38085,0,0,0,0,0,0,0,0,0,0,0,0,0,0
17.981164,7444,31536,38083,0,0,0,0,0,0,0,0,0,0,0,0,0,0
17.982164,7426,31536,38075,0,0,0,0,0,0,0,0,0,0,0,0,0,0
17.999551,7412,31522,38066,0,0,0,0,0,0,0,0,0,0,0,0,0,0
18.001591,7390,31522,38056,0,0,0,0,0,0,0,0,0,0,0,0,0,0
18.02022,7376,31520,38058,0,0,0,0,0,0,0,0,0,0,0,0,0,0
18.021251,7356,31528,38060,0,0,0,0,0,0,0,0,0,0,0,0,0,0
18.039497,7345,31527,38063,0,0,0,0,0,0,0,0,0,0,0,0,0,0
18.042316,7326,31530,38068,0,0,0,0,0,0,0,0,0,0,0,0,0,0
18.061375,7317,31527,38073,0,0,0,0,0,0,0,0,0,0,0,0,0,0
18.062402,7305,31534,38076,0,0,0,0,0,0,0,0,0,0,0,0,0,0
18.070048,7291,31528,38073,0,0,0,0,0,0,0,0,0,0,0,0,0,0
18.09073,7274,31526,38071,0,0,0,0,0,0,0,0,0,0,0,0,0,0
18.091732,7263,31519,38073,0,0,0,0,0,0,0,0,0,0,0,0,0,0
18.110403,7248,31522,38071,0,0,0,0,0,0,0,0,0,0,0,0,0,0
18.111406,7238,31521,38081,0,0,0,0,0,0,0,0,0,0,0,0,0,0
18.13028,7230,31525,38090,0,0,0,0,0,0,0,0,0,0,0,0,0,0
18.131503,7224,31519,38101,0,0,0,0,0,0,0,0,0,0,0,0,0,0
18.150109,7215,31527,38112,0,0,0,0,0,0,0,0,0,0,0,0,0,0
18.151099,7211,31525,38113,0,0,0,0,0,0,0,0,0,0,0,0,0,0
18.170078,7202,31523,38110,0,0,0,0,0,0,0,0,0,0,0,0,0,0
18.171098,7199,31516,38113,0,0,0,0,0,0,0,0,0,0,0,0,0,0
18.19031,7191,31523,38120,0,0,0,0,0,0,0,0,0,0,0,0,0,0
18.191807,7189,31517,38128,0,0,0,0,0,0,0,0,0,0,0,0,0,0
18.208949,7181,31523,38131,0,0,0,0,0,0,0,0,0,0,0,0,0,0
18.211586,7176,31512,38127,0,0,0,0,0,0,0,0,0,0,0,0,0,0
18.231962,7171,31508,38122,0,0,0,0,0,0,0,0,0,0,0,0,0,0
18.232992,7161,31496,38115,0,0,0,0,0,0,0,0,0,0,0,0,0,0
18.249576,7152,31490,38101,0,0,0,0,0,0,0,0,0,0,0,0,0,0
18.251619,7144,31477,38086,0,0,0,0,0,0,0,0,0,0,0,0,0,0
18.271993,7134,31474,38086,0,0,0,0,0,0,0,0,0,0,0,0,0,0
18.273273,7131,31471,38090,0,0,0,0,0,0,0,0,0,0,0,0,0,0
18.28997,7125,31476,38096,0,0,0,0,0,0,0,0,0,0,0,0,0,0
18.292257,7120,31470,38103,0,0,0,0,0,0,0,0,0,0,0,0,0,0
18.299868,7119,31471,38108,0,0,0,0,0,0,0,0,0,0,0,0,0,0
18.301771,7116,31467,38114,0,0,0,0,0,0,0,0,0,0,0,0,0,0
18.321084,7112,31467,38115,0,0,0,0,0,0,0,0,0,0,0,0,0,0
18.341744,7109,31456,38112,0,0,0,0,0,0,0,0,0,0,0,0,0,0
18.342806,7106,31454,38106,0,0,0,0,0,0,0,0,0,0,0,0,0,0
18.360497,7102,31442,38100,0,0,0,0,0,0,0,0,0,0,0,0,0,0
18.361418,7094,31437,38093,0,0,0,0,0,0,0,0,0,0,0,0,0,0
18.381476,7092,31425,38084,0,0,0,0,0,0,0,0,0,0,0,0,0,0
18.382583,7087,31419,38073,0,0,0,0,0,0,0,0,0,0,0,0,0,0
18.399397,7080,31409,38058,0,0,0,0,0,0,0,0,0,0,0,0,0,0
18.401397,7070,31399,38039,0,0,0,0,0,0,0,0,0,0,0,0,0,0
18.421614,7067,31381,38020,0,0,0,0,0,0,0,0,0,0,0,0,0,0
18.423615,7053,31364,37992,0,0,0,0,0,0,0,0,0,0,0,0,0,0
18.441103,7047,31352,37974,0,0,0,0,0,0,0,0,0,0,0,0,0,0
18.442136,7040,31344,37963,0,0,0,0,0,0,0,0,0,0,0,0,0,0
18.459403,7031,31337,37953,0,0,0,0,0,0,0,0,0,0,0,0,0,0
18.461411,7023,31325,37943,0,0,0,0,0,0,0,0,0,0,0,0,0,0
18.480111,7020,31321,37936,0,0,0,0,0,0,0,0,0,0,0,0,0,0
18.482111,7014,31304,37926,0,0,0,0,0,0,0,0,0,0,0,0,0,0
18.500111,7006,31306,37919,0,0,0,0,0,0,0,0,0,0,0,0,0,0
18.501111,7001,31294,37902,0,0,0,0,0,0,0,0,0,0,0,0,0,0
18.52127,6994,31285,37883,0,0,0,0,0,0,0,0,0,0,0,0,0,0
18.522295,6983,31259,37855,0,0,0,0,0,0,0,0,0,0,0,0,0,0
18.541397,6972,31250,37822,0,0,0,0,0,0,0,0,0,0,0,0,0,0
18.543396,6958,31231,37791,0,0,0,0,0,0,0,0,0,0,0,0,0,0
18.550904,6940,31214,37756,0,0,0,0,0,0,0,0,0,0,0,0,0,0
18.569904,6921,31200,37717,0,0,0,0,0,0,0,0,0,0,0,0,0,0
18.571904,6899,31182,37683,0,0,0,0,0,0,0,0,0,0,0,0,0,0
18.590992,6879,31158,37646,0,0,0,0,0,0,0,0,0,0,0,0,0,0
18.593011,6853,31142,37613,0,0,0,0,0,0,0,0,0,0,0,0,0,0
18.611563,6830,31130,37588,0,0,0,0,0,0,0,0,0,0,0,0,0,0
18.612563,6808,31123,37569,0,0,0,0,0,0,0,0,0,0,0,0,0,0
18.630762,6789,31120,37561,0,0,0,0,0,0,0,0,0,0,0,0,0,0
18.631947,6772,31121,37561,0,0,0,0,0,0,0,0,0,0,0,0,0,0
18.650153,6755,31119,37569,0,0,0,0,0,0,0,0,0,0,0,0,0,0
18.651153,6743,31125,37579,0,0,0,0,0,0,0,0,0,0,0,0,0,0
18.670595,6731,31127,37591,0,0,0,0,0,0,0,0,0,0,0,0,0,0
18.671619,6720,31133,37597,0,0,0,0,0,0,0,0,0,0,0,0,0,0
18.691667,6709,31122,37593,0,0,0,0,0,0,0,0,0,0,0,0,0,0
18.693667,6697,31123,37594,0,0,0,0,0,0,0,0,0,0,0,0,0,0
18.710667,6684,31114,37587,0,0,0,0,0,0,0,0,0,0,0,0,0,0
18.711667,6672,31112,37576,0,0,0,0,0,0,0,0,0,0,0,0,0,0
18.729856,6659,31103,37560,0,0,0,0,0,0,0,0,0,0,0,0,0,0
18.731925,6645,31096,37552,0,0,0,0,0,0,0,0,0,0,0,0,0,0
18.749927,6636,31084,37540,0,0,0,0,0,0,0,0,0,0,0,0,0,0
18.752003,6620,31080,37531,0,0,0,0,0,0,0,0,0,0,0,0,0,0
18.769681,6609,31077,37525,0,0,0,0,0,0,0,0,0,0,0,0,0,0
18.771682,6600,31068,37518,0,0,0,0,0,0,0,0,0,0,0,0,0,0
18.78035,6593,31064,37514,0,0,0,0,0,0,0,0,0,0,0,0,0,0
18.800345,6584,31059,37505,0,0,0,0,0,0,0,0,0,0,0,0,0,0
18.802576,6575,31047,37496,0,0,0,0,0,0,0,0,0,0,0,0,0,0
18.820783,6565,31046,37485,0,0,0,0,0,0,0,0,0,0,0,0,0,0
18.821783,6556,31035,37471,0,0,0,0,0,0,0,0,0,0,0,0,0,0
18.840674,6548,31026,37466,0,0,0,0,0,0,0,0,0,0,0,0,0,0
18.841775,6542,31021,37463,0,0,0,0,0,0,0,0,0,0,0,0,0,0
18.862184,6534,31026,37464,0,0,0,0,0,0,0,0,0,0,0,0,0,0
18.863218,6529,31021,37471,0,0,0,0,0,0,0,0,0,0,0,0,0,0
18.880148,6521,31024,37475,0,0,0,0,0,0,0,0,0,0,0,0,0,0
18.881184,6519,31020,37474,0,0,0,0,0,0,0,0,0,0,0,0,0,0
18.899849,6515,31025,37480,0,0,0,0,0,0,0,0,0,0,0,0,0,0
18.901901,6507,31019,37478,0,0,0,0,0,0,0,0,0,0,0,0,0,0
18.919941,6505,31021,37475,0,0,0,0,0,0,0,0,0,0,0,0,0,0
18.920969,6499,31012,37474,0,0,0,0,0,0,0,0,0,0,0,0,0,0
18.940173,6496,31013,37476,0,0,0,0,0,0,0,0,0,0,0,0,0,0
18.942172,6491,31006,37464,0,0,0,0,0,0,0,0,0,0,0,0,0,0
18.961995,6485,31001,37453,0,0,0,0,0,0,0,0,0,0,0,0,0,0
18.963002,6481,30989,37448,0,0,0,0,0,0,0,0,0,0,0,0,0,0
18.982002,6473,30990,37439,0,0,0,0,0,0,0,0,0,0,0,0,0,0
18.983002,6469,30982,37434,0,0,0,0,0,0,0,0,0,0,0,0,0,0
19.001246,6462,30983,37430,0,0,0,0,0,0,0,0,0,0,0,0,0,0
19.002357,6458,30975,37428,0,0,0,0,0,0,0,0,0,0,0,0,0,0
19.021966,6455,30975,37427,0,0,0,0,0,0,0,0,0,0,0,0,0,0
19.023965,6452,30968,37426,0,0,0,0,0,0,0,0,0,0,0,0,0,0
19.030472,6446,30968,37425,0,0,0,0,0,0,0,0,0,0,0,0,0,0
19.031471,6441,30961,37424,0,0,0,0,0,0,0,0,0,0,0,0,0,0
19.051226,6440,30963,37425,0,0,0,0,0,0,0,0,0,0,0,0,0,0
19.071532,6436,30959,37430,0,0,0,0,0,0,0,0,0,0,0,0,0,0
19.073532,6434,30956,37430,0,0,0,0,0,0,0,0,0,0,0,0,0,0
19.092011,6434,30951,37432,0,0,0,0,0,0,0,0,0,0,0,0,0,0
19.094362,6433,30959,37435,0,0,0,0,0,0,0,0,0,0,0,0,0,0
19.110429,6433,30951,37433,0,0,0,0,0,0,0,0,0,0,0,0,0,0
19.111607,6431,30955,37432,0,0,0,0,0,0,0,0,0,0,0,0,0,0
19.130366,6430,30945,37432,0,0,0,0,0,0,0,0,0,0,0,0,0,0
19.131469,6428,30950,37427,0,0,0,0,0,0,0,0,0,0,0,0,0,0
19.151234,6426,30939,37425,0,0,0,0,0,0,0,0,0,0,0,0,0,0
19.153253,6424,30940,37421,0,0,0,0,0,0,0,0,0,0,0,0,0,0
19.171726,6421,30931,37414,0,0,0,0,0,0,0,0,0,0,0,0,0,0
19.172726,6420,30928,37410,0,0,0,0,0,0,0,0,0,0,0,0,0,0
19.191266,6420,30922,37407,0,0,0,0,0,0,0,0,0,0,0,0,0,0
19.192266,6418,30927,37404,0,0,0,0,0,0,0,0,0,0,0,0,0,0
19.211266,6416,30925,37410,0,0,0,0,0,0,0,0,0,0,0,0,0,0
19.212265,6419,30928,37416,0,0,0,0,0,0,0,0,0,0,0,0,0,0
19.229443,6417,30926,37426,0,0,0,0,0,0,0,0,0,0,0,0,0,0
19.231523,6420,30926,37425,0,0,0,0,0,0,0,0,0,0,0,0,0,0
19.25,6419,30924,37420,0,0,0,0,0,0,0,0,0,0,0,0,0,0
19.252029,6420,30921,37419,0,0,0,0,0,0,0,0,0,0,0,0,0,0
19.270189,6420,30912,37411,0,0,0,0,0,0,0,0,0,0,0,0,0,0
19.272189,6417,30914,37402,0,0,0,0,0,0,0,0,0,0,0,0,0,0
19.281637,6414,30903,37391,0,0,0,0,0,0,0,0,0,0,0,0,0,0
19.300214,6412,30901,37380,0,0,0,0,0,0,0,0,0,0,0,0,0,0
19.301215,6407,30890,37361,0,0,0,0,0,0,0,0,0,0,0,0,0,0
19.319512,6400,30888,37348,0,0,0,0,0,0,0,0,0,0,0,0,0,0
19.321512,6392,30873,37334,0,0,0,0,0,0,0,0,0,0,0,0,0,0
19.341369,6387,30877,37320,0,0,0,0,0,0,0,0,0,0,0,0,0,0
19.342393,6376,30870,37312,0,0,0,0,0,0,0,0,0,0,0,0,0,0
19.359899,6364,30869,37303,0,0,0,0,0,0,0,0,0,0,0,0,0,0
19.362052,6356,30865,37296,0,0,0,0,0,0,0,0,0,0,0,0,0,0
19.381351,6346,30867,37293,0,0,0,0,0,0,0,0,0,0,0,0,0,0
19.382354,6340,30860,37287,0,0,0,0,0,0,0,0,0,0,0,0,0,0
19.399522,6329,30863,37283,0,0,0,0,0,0,0,0,0,0,0,0,0,0
19.401644,6321,30855,37273,0,0,0,0,0,0,0,0,0,0,0,0,0,0
19.421982,6310,30855,37266,0,0,0,0,0,0,0,0,0,0,0,0,0,0
19.422982,6302,30847,37256,0,0,0,0,0,0,0,0,0,0,0,0,0,0
19.439685,6289,30844,37247,0,0,0,0,0,0,0,0,0,0,0,0,0,0
19.441749,6283,30838,37235,0,0,0,0,0,0,0,0,0,0,0,0,0,0
19.460867,6272,30832,37223,0,0,0,0,0,0,0,0,0,0,0,0,0,0
19.461866,6267,30829,37213,0,0,0,0,0,0,0,0,0,0,0,0,0,0
19.481866,6258,30825,37211,0,0,0,0,0,0,0,0,0,0,0,0,0,0
19.482866,6249,30822,37206,0,0,0,0,0,0,0,0,0,0,0,0,0,0
19.501267,6242,30821,37204,0,0,0,0,0,0,0,0,0,0,0,0,0,0
19.502268,6239,30817,37204,0,0,0,0,0,0,0,0,0,0,0,0,0,0
19.511489,6233,30823,37211,0,0,0,0,0,0,0,0,0,0,0,0,0,0
19.528985,6228,30818,37210,0,0,0,0,0,0,0,0,0,0,0,0,0,0
19.531497,6219,30820,37211,0,0,0,0,0,0,0,0,0,0,0,0,0,0
19.551274,6222,30815,37215,0,0,0,0,0,0,0,0,0,0,0,0,0,0
19.552269,6219,30822,37220,0,0,0,0,0,0,0,0,0,0,0,0,0,0
19.570571,6219,30823,37219,0,0,0,0,0,0,0,0,0,0,0,0,0,0
19.571571,6213,30821,37222,0,0,0,0,0,0,0,0,0,0,0,0,0,0
19.590034,6211,30822,37221,0,0,0,0,0,0,0,0,0,0,0,0,0,0
19.591134,6211,30820,37223,0,0,0,0,0,0,0,0,0,0,0,0,0,0
19.611014,6212,30818,37223,0,0,0,0,0,0,0,0,0,0,0,0,0,0
19.612028,6207,30818,37227,0,0,0,0,0,0,0,0,0,0,0,0,0,0
19.630944,6207,30818,37236,0,0,0,0,0,0,0,0,0,0,0,0,0,0
19.631953,6203,30824,37235,0,0,0,0,0,0,0,0,0,0,0,0,0,0
19.649522,6211,30826,37248,0,0,0,0,0,0,0,0,0,0,0,0,0,0
19.651523,6210,30830,37257,0,0,0,0,0,0,0,0,0,0,0,0,0,0
19.669822,6214,30830,37264,0,0,0,0,0,0,0,0,0,0,0,0,0,0
19.671874,6212,30836,37272,0,0,0,0,0,0,0,0,0,0,0,0,0,0
19.690578,6217,30837,37275,0,0,0,0,0,0,0,0,0,0,0,0,0,0
19.692578,6215,30840,37283,0,0,0,0,0,0,0,0,0,0,0,0,0,0
19.710336,6225,30843,37286,0,0,0,0,0,0,0,0,0,0,0,0,0,0
19.711484,6219,30839,37288,0,0,0,0,0,0,0,0,0,0,0,0,0,0
19.730571,6229,30841,37293,0,0,0,0,0,0,0,0,0,0,0,0,0,0
19.731571,6225,30842,37293,0,0,0,0,0,0,0,0,0,0,0,0,0,0
19.741883,6232,30845,37301,0,0,0,0,0,0,0,0,0,0,0,0,0,0
19.761389,6232,30845,37305,0,0,0,0,0,0,0,0,0,0,0,0,0,0
19.762389,6233,30847,37315,0,0,0,0,0,0,0,0,0,0,0,0,0,0
19.781146,6236,30849,37325,0,0,0,0,0,0,0,0,0,0,0,0,0,0
19.782332,6246,30853,37331,0,0,0,0,0,0,0,0,0,0,0,0,0,0
19.800365,6245,30852,37336,0,0,0,0,0,0,0,0,0,0,0,0,0,0
19.801405,6250,30854,37345,0,0,0,0,0,0,0,0,0,0,0,0,0,0
19.821606,6253,30857,37349,0,0,0,0,0,0,0,0,0,0,0,0,0,0
19.822607,6260,30856,37350,0,0,0,0,0,0,0,0,0,0,0,0,0,0
19.841393,6260,30857,37350,0,0,0,0,0,0,0,0,0,0,0,0,0,0
19.842427,6265,30858,37359,0,0,0,0,0,0,0,0,0,0,0,0,0,0
19.860245,6267,30859,37360,0,0,0,0,0,0,0,0,0,0,0,0,0,0
19.862528,6272,30857,37364,0,0,0,0,0,0,0,0,0,0,0,0,0,0
19.880552,6273,30861,37371,0,0,0,0,0,0,0,0,0,0,0,0,0,0
19.882571,6280,30862,37378,0,0,0,0,0,0,0,0,0,0,0,0,0,0
19.899964,6283,30860,37384,0,0,0,0,0,0,0,0,0,0,0,0,0,0
19.901075,6289,30864,37386,0,0,0,0,0,0,0,0,0,0,0,0,0,0
19.919511,6289,30862,37387,0,0,0,0,0,0,0,0,0,0,0,0,0,0
19.921634,6295,30865,37390,0,0,0,0,0,0,0,0,0,0,0,0,0,0
19.941129,6299,30865,37398,0,0,0,0,0,0,0,0,0,0,0,0,0,0
19.942848,6303,30870,37408,0,0,0,0,0,0,0,0,0,0,0,0,0,0
19.960351,6308,30871,37419,0,0,0,0,0,0,0,0,0,0,0,0,0,0
19.96157,6314,30875,37430,0,0,0,0,0,0,0,0,0,0,0,0,0,0
19.980971,6314,30881,37437,0,0,0,0,0,0,0,0,0,0,0,0,0,0
19.981991,6324,30882,37446,0,0,0,0,0,0,0,0,0,0,0,0,0,0
19.999746,6327,30883,37452,0,0,0,0,0,0,0,0,0,0,0,0,0,0
20.001752,6329,30882,37452,0,0,0,0,0,0,0,0,0,0,0,0,0,0
20.02214,6335,30882,37458,0,0,0,0,0,0,0,0,0,0,0,0,0,0
20.023358,6340,30880,37448,0,0,0,0,0,0,0,0,0,0,0,0,0,0
20.041069,6342,30876,37442,0,0,0,0,0,0,0,0,0,0,0,0,0,0
20.042067,6337,30873,37428,0,0,0,0,0,0,0,0,0,0,0,0,0,0
20.049574,6340,30870,37419,0,0,0,0,0,0,0,0,0,0,0,0,0,0
20.069574,6340,30868,37409,0,0,0,0,0,0,0,0,0,0,0,0,0,0
20.071574,6339,30866,37404,0,0,0,0,0,0,0,0,0,0,0,0,0,0
20.091666,6334,30861,37393,0,0,0,0,0,0,0,0,0,0,0,0,0,0
20.092683,6331,30860,37388,0,0,0,0,0,0,0,0,0,0,0,0,0,0
20.110378,6327,30859,37376,0,0,0,0,0,0,0,0,0,0,0,0,0,0
20.111391,6325,30854,37370,0,0,0,0,0,0,0,0,0,0,0,0,0,0
20.132694,6321,30853,37360,0,0,0,0,0,0,0,0,0,0,0,0,0,0
20.134702,6312,30850,37355,0,0,0,0,0,0,0,0,0,0,0,0,0,0
20.152289,6303,30845,37340,0,0,0,0,0,0,0,0,0,0,0,0,0,0
20.153198,6301,30844,37333,0,0,0,0,0,0,0,0,0,0,0,0,0,0
20.171189,6292,30842,37322,0,0,0,0,0,0,0,0,0,0,0,0,0,0
20.172104,6294,30837,37315,0,0,0,0,0,0,0,0,0,0,0,0,0,0
20.191065,6286,30830,37305,0,0,0,0,0,0,0,0,0,0,0,0,0,0
20.192078,6282,30833,37305,0,0,0,0,0,0,0,0,0,0,0,0,0,0
20.210139,6279,30830,37306,0,0,0,0,0,0,0,0,0,0,0,0,0,0
20.211139,6276,30833,37312,0,0,0,0,0,0,0,0,0,0,0,0,0,0
20.230179,6274,30833,37316,0,0,0,0,0,0,0,0,0,0,0,0,0,0
20.231179,6274,30836,37325,0,0,0,0,0,0,0,0,0,0,0,0,0,0
20.250483,6274,30841,37329,0,0,0,0,0,0,0,0,0,0,0,0,0,0
20.251483,6275,30840,37335,0,0,0,0,0,0,0,0,0,0,0,0,0,0
20.271757,6277,30840,37336,0,0,0,0,0,0,0,0,0,0,0,0,0,0
20.272784,6277,30841,37342,0,0,0,0,0,0,0,0,0,0,0,0,0,0
20.280336,6281,30838,37340,0,0,0,0,0,0,0,0,0,0,0,0,0,0
20.300328,6280,30843,37344,0,0,0,0,0,0,0,0,0,0,0,0,0,0
20.301239,6276,30841,37340,0,0,0,0,0,0,0,0,0,0,0,0,0,0
20.319806,6282,30838,37337,0,0,0,0,0,0,0,0,0,0,0,0,0,0
20.321805,6280,30835,37333,0,0,0,0,0,0,0,0,0,0,0,0,0,0
20.339636,6281,30834,37334,0,0,0,0,0,0,0,0,0,0,0,0,0,0
20.341691,6280,30835,37335,0,0,0,0,0,0,0,0,0,0,0,0,0,0
20.359843,6282,30835,37340,0,0,0,0,0,0,0,0,0,0,0,0,0,0
20.361908,6282,30840,37343,0,0,0,0,0,0,0,0,0,0,0,0,0,0
20.379454,6286,30841,37345,0,0,0,0,0,0,0,0,0,0,0,0,0,0
20.381454,6287,30841,37351,0,0,0,0,0,0,0,0,0,0,0,0,0,0
20.4003,6287,30843,37354,0,0,0,0,0,0,0,0,0,0,0,0,0,0
20.40157,6284,30846,37357,0,0,0,0,0,0,0,0,0,0,0,0,0,0
20.419822,6288,30845,37358,0,0,0,0,0,0,0,0,0,0,0,0,0,0
20.42193,6288,30845,37355,0,0,0,0,0,0,0,0,0,0,0,0,0,0
20.440187,6292,30841,37354,0,0,0,0,0,0,0,0,0,0,0,0,0,0
20.441238,6290,30838,37351,0,0,0,0,0,0,0,0,0,0,0,0,0,0
20.460528,6290,30839,37350,0,0,0,0,0,0,0,0,0,0,0,0,0,0
20.461529,6286,30837,37356,0,0,0,0,0,0,0,0,0,0,0,0,0,0
20.480359,6296,30844,37366,0,0,0,0,0,0,0,0,0,0,0,0,0,0
20.481615,6291,30852,37379,0,0,0,0,0,0,0,0,0,0,0,0,0,0
20.50199,6303,30860,37409,0,0,0,0,0,0,0,0,0,0,0,0,0,0
20.50299,6308,30873,37433,0,0,0,0,0,0,0,0,0,0,0,0,0,0
20.509837,6320,30885,37467,0,0,0,0,0,0,0,0,0,0,0,0,0,0
20.530334,6323,30897,37495,0,0,0,0,0,0,0,0,0,0,0,0,0,0
20.53142,6337,30910,37526,0,0,0,0,0,0,0,0,0,0,0,0,0,0
20.550313,6341,30920,37551,0,0,0,0,0,0,0,0,0,0,0,0,0,0
20.552318,6355,30928,37575,0,0,0,0,0,0,0,0,0,0,0,0,0,0
20.56976,6363,30935,37593,0,0,0,0,0,0,0,0,0,0,0,0,0,0
20.571761,6372,30941,37612,0,0,0,0,0,0,0,0,0,0,0,0,0,0
20.590955,6383,30947,37631,0,0,0,0,0,0,0,0,0,0,0,0,0,0
20.591981,6391,30951,37642,0,0,0,0,0,0,0,0,0,0,0,0,0,0
20.600461,6397,30956,37646,0,0,0,0,0,0,0,0,0,0,0,0,0,0
20.62026,6407,30959,37648,0,0,0,0,0,0,0,0,0,0,0,0,0,0
20.622288,6404,30952,37642,0,0,0,0,0,0,0,0,0,0,0,0,0,0
20.641337,6414,30947,37635,0,0,0,0,0,0,0,0,0,0,0,0,0,0
20.642337,6415,30945,37631,0,0,0,0,0,0,0,0,0,0,0,0,0,0
20.660774,6421,30943,37627,0,0,0,0,0,0,0,0,0,0,0,0,0,0
20.661882,6426,30943,37629,0,0,0,0,0,0,0,0,0,0,0,0,0,0
20.681202,6434,30944,37637,0,0,0,0,0,0,0,0,0,0,0,0,0,0
20.68222,6438,30951,37646,0,0,0,0,0,0,0,0,0,0,0,0,0,0
20.700383,6443,30956,37656,0,0,0,0,0,0,0,0,0,0,0,0,0,0
20.701383,6445,30952,37661,0,0,0,0,0,0,0,0,0,0,0,0,0,0
20.721699,6454,30954,37661,0,0,0,0,0,0,0,0,0,0,0,0,0,0
20.722699,6456,30949,37648,0,0,0,0,0,0,0,0,0,0,0,0,0,0
20.739776,6460,30947,37639,0,0,0,0,0,0,0,0,0,0,0,0,0,0
20.74211,6460,30942,37626,0,0,0,0,0,0,0,0,0,0,0,0,0,0
20.759616,6464,30936,37616,0,0,0,0,0,0,0,0,0,0,0,0,0,0
20.761616,6462,30930,37600,0,0,0,0,0,0,0,0,0,0,0,0,0,0
20.770282,6463,30928,37590,0,0,0,0,0,0,0,0,0,0,0,0,0,0
20.790357,6463,30927,37580,0,0,0,0,0,0,0,0,0,0,0,0,0,0
20.791357,6465,30923,37577,0,0,0,0,0,0,0,0,0,0,0,0,0,0
20.811062,6459,30925,37578,0,0,0,0,0,0,0,0,0,0,0,0,0,0
20.812062,6462,30928,37573,0,0,0,0,0,0,0,0,0,0,0,0,0,0
20.830091,6457,30930,37570,0,0,0,0,0,0,0,0,0,0,0,0,0,0
20.832091,6459,30927,37557,0,0,0,0,0,0,0,0,0,0,0,0,0,0
20.850115,6451,30923,37547,0,0,0,0,0,0,0,0,0,0,0,0,0,0
20.852255,6450,30918,37534,0,0,0,0,0,0,0,0,0,0,0,0,0,0
20.870258,6444,30914,37519,0,0,0,0,0,0,0,0,0,0,0,0,0,0
20.871258,6443,30909,37513,0,0,0,0,0,0,0,0,0,0,0,0,0,0
20.889891,6437,30910,37501,0,0,0,0,0,0,0,0,0,0,0,0,0,0
20.891048,6431,30909,37501,0,0,0,0,0,0,0,0,0,0,0,0,0,0
20.910784,6423,30906,37491,0,0,0,0,0,0,0,0,0,0,0,0,0,0
20.911802,6426,30905,37484,0,0,0,0,0,0,0,0,0,0,0,0,0,0
20.92024,6419,30899,37477,0,0,0,0,0,0,0,0,0,0,0,0,0,0
20.931174,6415,30896,37473,0,0,0,0,0,0,0,0,0,0,0,0,0,0
20.9505,6410,30893,37471,0,0,0,0,0,0,0,0,0,0,0,0,0,0
20.951534,6410,30891,37466,0,0,0,0,0,0,0,0,0,0,0,0,0,0
20.970026,6405,30893,37462,0,0,0,0,0,0,0,0,0,0,0,0,0,0
20.972283,6402,30891,37462,0,0,0,0,0,0,0,0,0,0,0,0,0,0
20.991,6399,30890,37463,0,0,0,0,0,0,0,0,0,0,0,0,0,0
20.992018,6400,30892,37474,0,0,0,0,0,0,0,0,0,0,0,0,0,0
21.011281,6402,30896,37478,0,0,0,0,0,0,0,0,0,0,0,0,0,0
21.012306,6403,30896,37479,0,0,0,0,0,0,0,0,0,0,0,0,0,0
21.032206,6402,30902,37486,0,0,0,0,0,0,0,0,0,0,0,0,0,0
21.033225,6402,30897,37485,0,0,0,0,0,0,0,0,0,0,0,0,0,0
21.04987,6403,30896,37481,0,0,0,0,0,0,0,0,0,0,0,0,0,0
21.05189,6402,30893,37480,0,0,0,0,0,0,0,0,0,0,0,0,0,0
21.059384,6400,30889,37479,0,0,0,0,0,0,0,0,0,0,0,0,0,0
21.081471,6400,30887,37480,0,0,0,0,0,0,0,0,0,0,0,0,0,0
21.082496,6401,30889,37478,0,0,0,0,0,0,0,0,0,0,0,0,0,0
21.102189,6398,30890,37479,0,0,0,0,0,0,0,0,0,0,0,0,0,0
21.103189,6400,30891,37483,0,0,0,0,0,0,0,0,0,0,0,0,0,0
21.119647,6401,30898,37498,0,0,0,0,0,0,0,0,0,0,0,0,0,0
21.121675,6403,30900,37504,0,0,0,0,0,0,0,0,0,0,0,0,0,0
21.140671,6405,30903,37511,0,0,0,0,0,0,0,0,0,0,0,0,0,0
21.141959,6407,30903,37519,0,0,0,0,0,0,0,0,0,0,0,0,0,0
21.161033,6412,30906,37520,0,0,0,0,0,0,0,0,0,0,0,0,0,0
21.16215,6413,30901,37518,0,0,0,0,0,0,0,0,0,0,0,0,0,0
21.171427,6413,30902,37512,0,0,0,0,0,0,0,0,0,0,0,0,0,0
21.189576,6412,30896,37509,0,0,0,0,0,0,0,0,0,0,0,0,0,0
21.191054,6410,30896,37501,0,0,0,0,0,0,0,0,0,0,0,0,0,0
21.209715,6412,30896,37508,0,0,0,0,0,0,0,0,0,0,0,0,0,0
21.211757,6414,30895,37505,0,0,0,0,0,0,0,0,0,0,0,0,0,0
21.230381,6413,30897,37514,0,0,0,0,0,0,0,0,0,0,0,0,0,0
21.231446,6415,30902,37522,0,0,0,0,0,0,0,0,0,0,0,0,0,0
21.250994,6419,30905,37531,0,0,0,0,0,0,0,0,0,0,0,0,0,0
21.252099,6425,30906,37538,0,0,0,0,0,0,0,0,0,0,0,0,0,0
21.272329,6427,30907,37544,0,0,0,0,0,0,0,0,0,0,0,0,0,0
21.274328,6431,30913,37550,0,0,0,0,0,0,0,0,0,0,0,0,0,0
21.289488,6431,30913,37556,0,0,0,0,0,0,0,0,0,0,0,0,0,0
21.291547,6437,30911,37558,0,0,0,0,0,0,0,0,0,0,0,0,0,0
21.300251,6439,30915,37563,0,0,0,0,0,0,0,0,0,0,0,0,0,0
21.319947,6440,30914,37562,0,0,0,0,0,0,0,0,0,0,0,0,0,0
21.32197,6444,30916,37565,0,0,0,0,0,0,0,0,0,0,0,0,0,0
21.339528,6446,30916,37571,0,0,0,0,0,0,0,0,0,0,0,0,0,0
21.341528,6452,30917,37574,0,0,0,0,0,0,0,0,0,0,0,0,0,0
21.362014,6455,30923,37583,0,0,0,0,0,0,0,0,0,0,0,0,0,0
21.363343,6459,30917,37587,0,0,0,0,0,0,0,0,0,0,0,0,0,0
21.379325,6461,30927,37589,0,0,0,0,0,0,0,0,0,0,0,0,0,0
21.380712,6465,30924,37592,0,0,0,0,0,0,0,0,0,0,0,0,0,0
21.400476,6467,30926,37595,0,0,0,0,0,0,0,0,0,0,0,0,0,0
21.401476,6471,30924,37602,0,0,0,0,0,0,0,0,0,0,0,0,0,0
21.420444,6476,30928,37607,0,0,0,0,0,0,0,0,0,0,0,0,0,0
21.421444,6479,30930,37615,0,0,0,0,0,0,0,0,0,0,0,0,0,0
21.440634,6483,30932,37619,0,0,0,0,0,0,0,0,0,0,0,0,0,0
21.441658,6489,30934,37630,0,0,0,0,0,0,0,0,0,0,0,0,0,0
21.46183,6489,30937,37636,0,0,0,0,0,0,0,0,0,0,0,0,0,0
21.46283,6491,30938,37642,0,0,0,0,0,0,0,0,0,0,0,0,0,0
21.482354,6498,30935,37640,0,0,0,0,0,0,0,0,0,0,0,0,0,0
21.484354,6498,30935,37639,0,0,0,0,0,0,0,0,0,0,0,0,0,0
21.500354,6502,30932,37623,0,0,0,0,0,0,0,0,0,0,0,0,0,0
21.501354,6499,30923,37605,0,0,0,0,0,0,0,0,0,0,0,0,0,0
21.520707,6493,30920,37588,0,0,0,0,0,0,0,0,0,0,0,0,0,0
21.521957,6491,30912,37573,0,0,0,0,0,0,0,0,0,0,0,0,0,0
21.539883,6485,30910,37560,0,0,0,0,0,0,0,0,0,0,0,0,0,0
21.541939,6483,30907,37549,0,0,0,0,0,0,0,0,0,0,0,0,0,0
21.560507,6477,30907,37541,0,0,0,0,0,0,0,0,0,0,0,0,0,0
21.561511,6473,30906,37539,0,0,0,0,0,0,0,0,0,0,0,0,0,0
21.57991,6468,30906,37529,0,0,0,0,0,0,0,0,0,0,0,0,0,0
21.58191,6463,30897,37522,0,0,0,0,0,0,0,0,0,0,0,0,0,0
21.60091,6454,30896,37507,0,0,0,0,0,0,0,0,0,0,0,0,0,0
21.60191,6445,30891,37498,0,0,0,0,0,0,0,0,0,0,0,0,0,0
21.610924,6439,30883,37478,0,0,0,0,0,0,0,0,0,0,0,0,0,0
21.630342,6432,30878,37472,0,0,0,0,0,0,0,0,0,0,0,0,0,0
21.631354,6425,30877,37461,0,0,0,0,0,0,0,0,0,0,0,0,0,0
21.639866,6421,30876,37456,0,0,0,0,0,0,0,0,0,0,0,0,0,0
21.660373,6412,30877,37463,0,0,0,0,0,0,0,0,0,0,0,0,0,0
21.661373,6410,30880,37463,0,0,0,0,0,0,0,0,0,0,0,0,0,0
21.679877,6405,30883,37464,0,0,0,0,0,0,0,0,0,0,0,0,0,0
21.682056,6401,30883,37469,0,0,0,0,0,0,0,0,0,0,0,0,0,0
21.700888,6398,30886,37475,0,0,0,0,0,0,0,0,0,0,0,0,0,0
21.701913,6400,30884,37477,0,0,0,0,0,0,0,0,0,0,0,0,0,0
21.719432,6395,30890,37480,0,0,0,0,0,0,0,0,0,0,0,0,0,0
21.721462,6394,30888,37479,0,0,0,0,0,0,0,0,0,0,0,0,0,0
21.739872,6390,30891,37478,0,0,0,0,0,0,0,0,0,0,0,0,0,0
21.741894,6390,30887,37478,0,0,0,0,0,0,0,0,0,0,0,0,0,0
21.761755,6388,30890,37476,0,0,0,0,0,0,0,0,0,0,0,0,0,0
21.762778,6386,30885,37475,0,0,0,0,0,0,0,0,0,0,0,0,0,0
21.772328,6383,30884,37472,0,0,0,0,0,0,0,0,0,0,0,0,0,0
21.789993,6384,30885,37473,0,0,0,0,0,0,0,0,0,0,0,0,0,0
21.791101,6383,30885,37472,0,0,0,0,0,0,0,0,0,0,0,0,0,0
21.812077,6382,30886,37479,0,0,0,0,0,0,0,0,0,0,0,0,0,0
21.813084,6383,30889,37483,0,0,0,0,0,0,0,0,0,0,0,0,0,0
21.830307,6383,30892,37494,0,0,0,0,0,0,0,0,0,0,0,0,0,0
21.831307,6384,30893,37498,0,0,0,0,0,0,0,0,0,0,0,0,0,0
21.849582,6385,30896,37506,0,0,0,0,0,0,0,0,0,0,0,0,0,0
21.851582,6389,30901,37518,0,0,0,0,0,0,0,0,0,0,0,0,0,0
21.871952,6390,30904,37522,0,0,0,0,0,0,0,0,0,0,0,0,0,0
21.87399,6395,30908,37523,0,0,0,0,0,0,0,0,0,0,0,0,0,0
21.890835,6395,30907,37522,0,0,0,0,0,0,0,0,0,0,0,0,0,0
21.892847,6393,30905,37522,0,0,0,0,0,0,0,0,0,0,0,0,0,0
21.909786,6398,30902,37521,0,0,0,0,0,0,0,0,0,0,0,0,0,0
21.911854,6397,30904,37524,0,0,0,0,0,0,0,0,0,0,0,0,0,0
21.931293,6396,30901,37525,0,0,0,0,0,0,0,0,0,0,0,0,0,0
21.932404,6400,30903,37529,0,0,0,0,0,0,0,0,0,0,0,0,0,0
21.950144,6403,30908,37538,0,0,0,0,0,0,0,0,0,0,0,0,0,0
21.951219,6403,30906,37544,0,0,0,0,0,0,0,0,0,0,0,0,0,0
21.96961,6407,30913,37545,0,0,0,0,0,0,0,0,0,0,0,0,0,0
21.971647,6409,30914,37557,0,0,0,0,0,0,0,0,0,0,0,0,0,0
21.991063,6417,30914,37557,0,0,0,0,0,0,0,0,0,0,0,0,0,0
21.992083,6417,30917,37569,0,0,0,0,0,0,0,0,0,0,0,0,0,0
21.999835,6418,30919,37571,0,0,0,0,0,0,0,0,0,0,0,0,0,0
22.000897,6422,30923,37588,0,0,0,0,0,0,0,0,0,0,0,0,0,0
22.019719,6428,30927,37598,0,0,0,0,0,0,0,0,0,0,0,0,0,0
