时间/s,PPG_G,PPG_R,PPG_IR,U1h,U1l,U2h,U2l,U3h,U3l,U4h,U4l,ACCX,ACCY,ACCZ,GX,GY,GZ
0,292,672,1035,0,0,0,0,0,0,0,0,0,0,0,0,0,0
0.002229,278,636,966,0,0,0,0,0,0,0,0,0,0,0,0,0,0
0.01951,263,603,901,0,0,0,0,0,0,0,0,0,0,0,0,0,0
0.020565,256,574,846,0,0,0,0,0,0,0,0,0,0,0,0,0,0
0.02892,249,555,813,0,0,0,0,0,0,0,0,0,0,0,0,0,0
0.049537,244,554,809,0,0,0,0,0,0,0,0,0,0,0,0,0,0
0.050559,0,0,0,0,0,0,0,0,0,0,0,0,0,0,0,0,0
0.068833,251,566,831,0,0,0,0,0,0,0,0,0,0,0,0,0,0
0.070834,259,583,867,0,0,0,0,0,0,0,0,0,0,0,0,0,0
0.089561,261,597,883,0,0,0,0,0,0,0,0,0,0,0,0,0,0
0.094841,262,597,876,0,0,0,0,0,0,0,0,0,0,0,0,0,0
0.109527,258,591,864,0,0,0,0,0,0,0,0,0,0,0,0,0,0
0.110547,258,591,855,0,0,0,0,0,0,0,0,0,0,0,0,0,0
0.118815,261,603,864,0,0,0,0,0,0,0,0,0,0,0,0,0,0
0.14001,263,614,881,0,0,0,0,0,0,0,0,0,0,0,0,0,0
0.14101,266,618,886,0,0,0,0,0,0,0,0,0,0,0,0,0,0
0.159303,267,617,885,0,0,0,0,0,0,0,0,0,0,0,0,0,0
0.160345,265,615,881,0,0,0,0,0,0,0,0,0,0,0,0,0,0
0.179559,263,607,871,0,0,0,0,0,0,0,0,0,0,0,0,0,0
0.180559,257,596,845,0,0,0,0,0,0,0,0,0,0,0,0,0,0
0.200012,250,569,801,0,0,0,0,0,0,0,0,0,0,0,0,0,0
0.201017,238,543,753,0,0,0,0,0,0,0,0,0,0,0,0,0,0
0.218948,230,511,693,0,0,0,0,0,0,0,0,0,0,0,0,0,0
0.220475,219,483,637,0,0,0,0,0,0,0,0,0,0,0,0,0,0
0.238685,207,459,595,0,0,0,0,0,0,0,0,0,0,0,0,0,0
0.240724,199,442,563,0,0,0,0,0,0,0,0,0,0,0,0,0,0
0.248623,198,429,545,0,0,0,0,0,0,0,0,0,0,0,0,0,0
0.268904,194,426,529,0,0,0,0,0,0,0,0,0,0,0,0,0,0
0.270962,194,421,530,0,0,0,0,0,0,0,0,0,0,0,0,0,0
0.288841,194,420,529,0,0,0,0,0,0,0,0,0,0,0,0,0,0
0.29085,194,415,525,0,0,0,0,0,0,0,0,0,0,0,0,0,0
0.308887,193,413,519,0,0,0,0,0,0,0,0,0,0,0,0,0,0
0.310975,187,409,507,0,0,0,0,0,0,0,0,0,0,0,0,0,0
0.330999,188,402,497,0,0,0,0,0,0,0,0,0,0,0,0,0,0
0.332032,185,398,487,0,0,0,0,0,0,0,0,0,0,0,0,0,0
0.349122,184,396,479,0,0,0,0,0,0,0,0,0,0,0,0,0,0
0.350402,186,395,476,0,0,0,0,0,0,0,0,0,0,0,0,0,0
0.368706,185,396,477,0,0,0,0,0,0,0,0,0,0,0,0,0,0
0.370781,185,397,481,0,0,0,0,0,0,0,0,0,0,0,0,0,0
0.390334,186,398,485,0,0,0,0,0,0,0,0,0,0,0,0,0,0
0.392419,188,398,487,0,0,0,0,0,0,0,0,0,0,0,0,0,0
0.409883,184,398,486,0,0,0,0,0,0,0,0,0,0,0,0,0,0
0.411176,187,396,484,0,0,0,0,0,0,0,0,0,0,0,0,0,0
0.429648,186,393,483,0,0,0,0,0,0,0,0,0,0,0,0,0,0
0.430648,185,394,484,0,0,0,0,0,0,0,0,0,0,0,0,0,0
0.449593,187,398,488,0,0,0,0,0,0,0,0,0,0,0,0,0,0
0.450585,186,395,489,0,0,0,0,0,0,0,0,0,0,0,0,0,0
0.471442,184,401,492,0,0,0,0,0,0,0,0,0,0,0,0,0,0
0.472461,186,400,498,0,0,0,0,0,0,0,0,0,0,0,0,0,0
0.480601,189,402,507,0,0,0,0,0,0,0,0,0,0,0,0,0,0
0.481601,191,409,518,0,0,0,0,0,0,0,0,0,0,0,0,0,0
0.499169,194,417,531,0,0,0,0,0,0,0,0,0,0,0,0,0,0
0.51916,193,420,537,0,0,0,0,0,0,0,0,0,0,0,0,0,0
0.520585,197,423,540,0,0,0,0,0,0,0,0,0,0,0,0,0,0
0.54037,197,421,531,0,0,0,0,0,0,0,0,0,0,0,0,0,0
0.541579,197,417,529,0,0,0,0,0,0,0,0,0,0,0,0,0,0
0.559823,190,416,524,0,0,0,0,0,0,0,0,0,0,0,0,0,0
0.560936,192,415,524,0,0,0,0,0,0,0,0,0,0,0,0,0,0
0.579527,194,417,523,0,0,0,0,0,0,0,0,0,0,0,0,0,0
0.580527,197,418,526,0,0,0,0,0,0,0,0,0,0,0,0,0,0
0.598691,197,421,535,0,0,0,0,0,0,0,0,0,0,0,0,0,0
0.600825,196,427,539,0,0,0,0,0,0,0,0,0,0,0,0,0,0
0.621409,199,427,548,0,0,0,0,0,0,0,0,0,0,0,0,0,0
0.623441,200,428,548,0,0,0,0,0,0,0,0,0,0,0,0,0,0
0.63931,199,430,549,0,0,0,0,0,0,0,0,0,0,0,0,0,0
0.640362,200,433,556,0,0,0,0,0,0,0,0,0,0,0,0,0,0
0.659846,202,443,569,0,0,0,0,0,0,0,0,0,0,0,0,0,0
0.660853,206,452,582,0,0,0,0,0,0,0,0,0,0,0,0,0,0
0.679699,210,459,601,0,0,0,0,0,0,0,0,0,0,0,0,0,0
0.681705,215,466,618,0,0,0,0,0,0,0,0,0,0,0,0,0,0
0.699318,212,470,627,0,0,0,0,0,0,0,0,0,0,0,0,0,0
0.70034,219,482,648,0,0,0,0,0,0,0,0,0,0,0,0,0,0
0.718507,229,510,700,0,0,0,0,0,0,0,0,0,0,0,0,0,0
0.72055,248,572,809,0,0,0,0,0,0,0,0,0,0,0,0,0,0
0.728688,278,667,968,0,0,0,0,0,0,0,0,0,0,0,0,0,0
0.749787,315,780,1148,0,0,0,0,0,0,0,0,0,0,0,0,0,0
0.750779,350,880,1307,0,0,0,0,0,0,0,0,0,0,0,0,0,0
0.768869,374,954,1425,0,0,0,0,0,0,0,0,0,0,0,0,0,0
0.770197,388,1009,1502,0,0,0,0,0,0,0,0,0,0,0,0,0,0
0.788883,400,1045,1563,0,0,0,0,0,0,0,0,0,0,0,0,0,0
0.790959,416,1088,1630,0,0,0,0,0,0,0,0,0,0,0,0,0,0
0.809595,435,1141,1717,0,0,0,0,0,0,0,0,0,0,0,0,0,0
0.811616,450,1209,1831,0,0,0,0,0,0,0,0,0,0,0,0,0,0
0.828576,480,1291,1959,0,0,0,0,0,0,0,0,0,0,0,0,0,0
0.830837,503,1377,2089,0,0,0,0,0,0,0,0,0,0,0,0,0,0
0.850542,527,1456,2203,0,0,0,0,0,0,0,0,0,0,0,0,0,0
0.851533,543,1523,2295,0,0,0,0,0,0,0,0,0,0,0,0,0,0
0.859124,564,1591,2389,0,0,0,0,0,0,0,0,0,0,0,0,0,0
0.878702,597,1714,2555,0,0,0,0,0,0,0,0,0,0,0,0,0,0
0.881053,645,1909,2814,0,0,0,0,0,0,0,0,0,0,0,0,0,0
0.891333,714,2152,3131,0,0,0,0,0,0,0,0,0,0,0,0,0,0
0.909549,789,2429,3495,0,0,0,0,0,0,0,0,0,0,0,0,0,0
0.910564,881,2787,3951,0,0,0,0,0,0,0,0,0,0,0,0,0,0
0.930571,1007,3258,4510,0,0,0,0,0,0,0,0,0,0,0,0,0,0
0.931572,1139,3786,5092,0,0,0,0,0,0,0,0,0,0,0,0,0,0
0.948638,1245,4241,5558,0,0,0,0,0,0,0,0,0,0,0,0,0,0
0.950643,1343,4649,5957,0,0,0,0,0,0,0,0,0,0,0,0,0,0
0.969177,1452,5138,6429,0,0,0,0,0,0,0,0,0,0,0,0,0,0
0.970319,1583,5743,7010,0,0,0,0,0,0,0,0,0,0,0,0,0,0
0.990454,1779,6672,7872,0,0,0,0,0,0,0,0,0,0,0,0,0,0
0.992458,2098,8165,9184,0,0,0,0,0,0,0,0,0,0,0,0,0,0
1.009856,2548,10287,10972,0,0,0,0,0,0,0,0,0,0,0,0,0,0
1.011959,3129,12817,13122,0,0,0,0,0,0,0,0,0,0,0,0,0,0
1.031132,3762,15499,15309,0,0,0,0,0,0,0,0,0,0,0,0,0,0
1.03214,4426,18366,17548,0,0,0,0,0,0,0,0,0,0,0,0,0,0
1.038602,5010,20961,19512,0,0,0,0,0,0,0,0,0,0,0,0,0,0
1.058768,5443,22861,20918,0,0,0,0,0,0,0,0,0,0,0,0,0,0
1.060781,5683,24094,21740,0,0,0,0,0,0,0,0,0,0,0,0,0,0
1.079274,5762,24759,22160,0,0,0,0,0,0,0,0,0,0,0,0,0,0
1.081287,5785,25661,22754,0,0,0,0,0,0,0,0,0,0,0,0,0,0
1.099854,5771,26904,23770,0,0,0,0,0,0,0,0,0,0,0,0,0,0
1.100851,5622,27972,25088,0,0,0,0,0,0,0,0,0,0,0,0,0,0
1.119392,5234,28445,26303,0,0,0,0,0,0,0,0,0,0,0,0,0,0
1.1206,4588,28135,26917,0,0,0,0,0,0,0,0,0,0,0,0,0,0
1.139833,3971,27629,27332,0,0,0,0,0,0,0,0,0,0,0,0,0,0
1.140826,3961,28131,28292,0,0,0,0,0,0,0,0,0,0,0,0,0,0
1.159834,4074,28933,29556,0,0,0,0,0,0,0,0,0,0,0,0,0,0
1.160842,4246,29786,30810,0,0,0,0,0,0,0,0,0,0,0,0,0,0
1.179037,4435,30538,31958,0,0,0,0,0,0,0,0,0,0,0,0,0,0
1.181157,4622,31135,32862,0,0,0,0,0,0,0,0,0,0,0,0,0,0
1.200687,4797,31601,33618,0,0,0,0,0,0,0,0,0,0,0,0,0,0
1.201687,4953,31956,34259,0,0,0,0,0,0,0,0,0,0,0,0,0,0
1.21909,5075,32189,34672,0,0,0,0,0,0,0,0,0,0,0,0,0,0
1.221117,5172,32313,34912,0,0,0,0,0,0,0,0,0,0,0,0,0,0
1.238742,5276,32336,35039,0,0,0,0,0,0,0,0,0,0,0,0,0,0
1.240762,5392,32324,35117,0,0,0,0,0,0,0,0,0,0,0,0,0,0
1.259438,5511,32279,35148,0,0,0,0,0,0,0,0,0,0,0,0,0,0
1.260702,5631,32241,35169,0,0,0,0,0,0,0,0,0,0,0,0,0,0
1.27094,5746,32232,35220,0,0,0,0,0,0,0,0,0,0,0,0,0,0
1.27296,5857,32239,35291,0,0,0,0,0,0,0,0,0,0,0,0,0,0
1.290815,5950,32268,35386,0,0,0,0,0,0,0,0,0,0,0,0,0,0
1.308555,6028,32329,35498,0,0,0,0,0,0,0,0,0,0,0,0,0,0
1.310741,6098,32383,35602,0,0,0,0,0,0,0,0,0,0,0,0,0,0
1.330467,6144,32425,35679,0,0,0,0,0,0,0,0,0,0,0,0,0,0
1.331491,6195,32451,35744,0,0,0,0,0,0,0,0,0,0,0,0,0,0
1.351327,6244,32474,35804,0,0,0,0,0,0,0,0,0,0,0,0,0,0
1.352391,6293,32490,35846,0,0,0,0,0,0,0,0,0,0,0,0,0,0
1.369489,6328,32513,35890,0,0,0,0,0,0,0,0,0,0,0,0,0,0
1.370689,6367,32527,35934,0,0,0,0,0,0,0,0,0,0,0,0,0,0
1.388876,6399,32548,35968,0,0,0,0,0,0,0,0,0,0,0,0,0,0
1.391071,6435,32562,36008,0,0,0,0,0,0,0,0,0,0,0,0,0,0
1.409199,6465,32585,36054,0,0,0,0,0,0,0,0,0,0,0,0,0,0
1.41127,6496,32609,36106,0,0,0,0,0,0,0,0,0,0,0,0,0,0
1.429612,6523,32649,36168,0,0,0,0,0,0,0,0,0,0,0,0,0,0
1.430612,6553,32678,36221,0,0,0,0,0,0,0,0,0,0,0,0,0,0
1.451003,6574,32712,36277,0,0,0,0,0,0,0,0,0,0,0,0,0,0
1.453978,6596,32739,36329,0,0,0,0,0,0,0,0,0,0,0,0,0,0
1.469478,6619,32761,36373,0,0,0,0,0,0,0,0,0,0,0,0,0,0
1.470479,6643,32707,36398,0,0,0,0,0,0,0,0,0,0,0,0,0,0
1.489524,6667,32552,36424,0,0,0,0,0,0,0,0,0,0,0,0,0,0
1.490545,6684,32559,36453,0,0,0,0,0,0,0,0,0,0,0,0,0,0
1.510287,6708,32572,36481,0,0,0,0,0,0,0,0,0,0,0,0,0,0
1.51139,6726,32592,36510,0,0,0,0,0,0,0,0,0,0,0,0,0,0
1.529807,6742,32619,36551,0,0,0,0,0,0,0,0,0,0,0,0,0,0
1.53111,6755,32654,36596,0,0,0,0,0,0,0,0,0,0,0,0,0,0
1.549429,6772,32697,36662,0,0,0,0,0,0,0,0,0,0,0,0,0,0
1.550786,6778,32748,36724,0,0,0,0,0,0,0,0,0,0,0,0,0,0
1.558676,6793,32784,36782,0,0,0,0,0,0,0,0,0,0,0,0,0,0
1.580616,6800,32799,36809,0,0,0,0,0,0,0,0,0,0,0,0,0,0
1.581651,6815,32800,36819,0,0,0,0,0,0,0,0,0,0,0,0,0,0
1.599364,6829,32792,36814,0,0,0,0,0,0,0,0,0,0,0,0,0,0
1.60038,6847,32784,36809,0,0,0,0,0,0,0,0,0,0,0,0,0,0
1.619575,6859,32782,36816,0,0,0,0,0,0,0,0,0,0,0,0,0,0
1.620581,6874,32788,36831,0,0,0,0,0,0,0,0,0,0,0,0,0,0
1.640584,6889,32794,36854,0,0,0,0,0,0,0,0,0,0,0,0,0,0
1.642603,6903,32810,36873,0,0,0,0,0,0,0,0,0,0,0,0,0,0
1.659374,6913,32825,36899,0,0,0,0,0,0,0,0,0,0,0,0,0,0
1.660599,6925,32836,36913,0,0,0,0,0,0,0,0,0,0,0,0,0,0
1.681161,6934,32834,36924,0,0,0,0,0,0,0,0,0,0,0,0,0,0
1.682574,6950,32837,36933,0,0,0,0,0,0,0,0,0,0,0,0,0,0
1.700548,6961,32832,36941,0,0,0,0,0,0,0,0,0,0,0,0,0,0
1.701588,6978,32834,36950,0,0,0,0,0,0,0,0,0,0,0,0,0,0
1.721199,6989,32830,36959,0,0,0,0,0,0,0,0,0,0,0,0,0,0
1.72222,7001,32829,36956,0,0,0,0,0,0,0,0,0,0,0,0,0,0
1.739102,7014,32816,36947,0,0,0,0,0,0,0,0,0,0,0,0,0,0
1.741153,7029,32810,36937,0,0,0,0,0,0,0,0,0,0,0,0,0,0
1.761455,7041,32803,36939,0,0,0,0,0,0,0,0,0,0,0,0,0,0
1.762556,7053,32804,36942,0,0,0,0,0,0,0,0,0,0,0,0,0,0
1.779522,7064,32812,36955,0,0,0,0,0,0,0,0,0,0,0,0,0,0
1.780559,7074,32824,36975,0,0,0,0,0,0,0,0,0,0,0,0,0,0
1.791629,7085,32836,36996,0,0,0,0,0,0,0,0,0,0,0,0,0,0
1.810296,7095,32846,37017,0,0,0,0,0,0,0,0,0,0,0,0,0,0
1.811301,7106,32849,37028,0,0,0,0,0,0,0,0,0,0,0,0,0,0
1.830257,7116,32852,37031,0,0,0,0,0,0,0,0,0,0,0,0,0,0
1.831257,7124,32853,37034,0,0,0,0,0,0,0,0,0,0,0,0,0,0
1.84864,7128,32851,37033,0,0,0,0,0,0,0,0,0,0,0,0,0,0
1.850686,7138,32847,37021,0,0,0,0,0,0,0,0,0,0,0,0,0,0
1.868678,7146,32830,37004,0,0,0,0,0,0,0,0,0,0,0,0,0,0
1.870959,7150,32820,36972,0,0,0,0,0,0,0,0,0,0,0,0,0,0
1.891109,7153,32802,36945,0,0,0,0,0,0,0,0,0,0,0,0,0,0
1.892127,7156,32802,36922,0,0,0,0,0,0,0,0,0,0,0,0,0,0
1.90935,7157,32796,36908,0,0,0,0,0,0,0,0,0,0,0,0,0,0
1.91038,7157,32797,36898,0,0,0,0,0,0,0,0,0,0,0,0,0,0
1.930999,7156,32799,36895,0,0,0,0,0,0,0,0,0,0,0,0,0,0
1.932323,7154,32807,36893,0,0,0,0,0,0,0,0,0,0,0,0,0,0
1.949419,7156,32806,36895,0,0,0,0,0,0,0,0,0,0,0,0,0,0
1.950742,7162,32798,36889,0,0,0,0,0,0,0,0,0,0,0,0,0,0
1.969162,7169,32793,36887,0,0,0,0,0,0,0,0,0,0,0,0,0,0
1.970304,7176,32778,36875,0,0,0,0,0,0,0,0,0,0,0,0,0,0
1.991374,7185,32770,36876,0,0,0,0,0,0,0,0,0,0,0,0,0,0
1.992478,7192,32765,36876,0,0,0,0,0,0,0,0,0,0,0,0,0,0
2.011208,7202,32763,36880,0,0,0,0,0,0,0,0,0,0,0,0,0,0
2.013133,7211,32766,36897,0,0,0,0,0,0,0,0,0,0,0,0,0,0
2.030972,7221,32774,36912,0,0,0,0,0,0,0,0,0,0,0,0,0,0
2.032076,7227,32780,36922,0,0,0,0,0,0,0,0,0,0,0,0,0,0
2.048835,7238,32780,36934,0,0,0,0,0,0,0,0,0,0,0,0,0,0
2.050871,7245,32780,36932,0,0,0,0,0,0,0,0,0,0,0,0,0,0
2.06875,7251,32776,36933,0,0,0,0,0,0,0,0,0,0,0,0,0,0
2.0708,7259,32771,36939,0,0,0,0,0,0,0,0,0,0,0,0,0,0
2.079446,7268,32769,36953,0,0,0,0,0,0,0,0,0,0,0,0,0,0
2.099021,7280,32774,36964,0,0,0,0,0,0,0,0,0,0,0,0,0,0
2.101157,7290,32778,36983,0,0,0,0,0,0,0,0,0,0,0,0,0,0
2.119175,7298,32786,36993,0,0,0,0,0,0,0,0,0,0,0,0,0,0
2.121202,7305,32793,37012,0,0,0,0,0,0,0,0,0,0,0,0,0,0
2.1394,7310,32800,37018,0,0,0,0,0,0,0,0,0,0,0,0,0,0
2.140668,7321,32807,37031,0,0,0,0,0,0,0,0,0,0,0,0,0,0
2.159456,7326,32812,37043,0,0,0,0,0,0,0,0,0,0,0,0,0,0
2.160721,7333,32824,37062,0,0,0,0,0,0,0,0,0,0,0,0,0,0
2.179073,7338,32834,37074,0,0,0,0,0,0,0,0,0,0,0,0,0,0
2.180329,7343,32842,37089,0,0,0,0,0,0,0,0,0,0,0,0,0,0
2.198781,7350,32846,37103,0,0,0,0,0,0,0,0,0,0,0,0,0,0
2.20021,7357,32851,37106,0,0,0,0,0,0,0,0,0,0,0,0,0,0
2.21955,7365,32844,37110,0,0,0,0,0,0,0,0,0,0,0,0,0,0
2.220817,7375,32836,37101,0,0,0,0,0,0,0,0,0,0,0,0,0,0
2.229669,7383,32828,37106,0,0,0,0,0,0,0,0,0,0,0,0,0,0
2.250549,7392,32829,37102,0,0,0,0,0,0,0,0,0,0,0,0,0,0
2.251586,7399,32827,37115,0,0,0,0,0,0,0,0,0,0,0,0,0,0
2.269396,7407,32829,37127,0,0,0,0,0,0,0,0,0,0,0,0,0,0
2.27042,7416,32835,37134,0,0,0,0,0,0,0,0,0,0,0,0,0,0
2.289542,7422,32837,37141,0,0,0,0,0,0,0,0,0,0,0,0,0,0
2.291704,7429,32831,37148,0,0,0,0,0,0,0,0,0,0,0,0,0,0
2.310001,7436,32829,37144,0,0,0,0,0,0,0,0,0,0,0,0,0,0
2.311024,7440,32825,37146,0,0,0,0,0,0,0,0,0,0,0,0,0,0
2.329976,7446,32824,37144,0,0,0,0,0,0,0,0,0,0,0,0,0,0
2.331085,7453,32819,37147,0,0,0,0,0,0,0,0,0,0,0,0,0,0
2.350328,7457,32821,37147,0,0,0,0,0,0,0,0,0,0,0,0,0,0
2.351355,7464,32821,37159,0,0,0,0,0,0,0,0,0,0,0,0,0,0
2.37109,7468,32830,37163,0,0,0,0,0,0,0,0,0,0,0,0,0,0
2.372081,7470,32835,37175,0,0,0,0,0,0,0,0,0,0,0,0,0,0
2.390846,7476,32840,37181,0,0,0,0,0,0,0,0,0,0,0,0,0,0
2.391873,7481,32839,37186,0,0,0,0,0,0,0,0,0,0,0,0,0,0
2.408679,7487,32841,37189,0,0,0,0,0,0,0,0,0,0,0,0,0,0
2.410724,7491,32842,37191,0,0,0,0,0,0,0,0,0,0,0,0,0,0
2.431357,7497,32848,37196,0,0,0,0,0,0,0,0,0,0,0,0,0,0
2.432358,7497,32852,37203,0,0,0,0,0,0,0,0,0,0,0,0,0,0
2.450231,7503,32852,37214,0,0,0,0,0,0,0,0,0,0,0,0,0,0
2.451335,7506,32861,37216,0,0,0,0,0,0,0,0,0,0,0,0,0,0
2.458956,7513,32861,37214,0,0,0,0,0,0,0,0,0,0,0,0,0,0
2.479224,7515,32851,37210,0,0,0,0,0,0,0,0,0,0,0,0,0,0
2.480224,7521,32843,37207,0,0,0,0,0,0,0,0,0,0,0,0,0,0
2.49935,7524,32845,37209,0,0,0,0,0,0,0,0,0,0,0,0,0,0
2.500388,7530,32850,37213,0,0,0,0,0,0,0,0,0,0,0,0,0,0
2.518831,7533,32853,37222,0,0,0,0,0,0,0,0,0,0,0,0,0,0
2.520908,7540,32855,37229,0,0,0,0,0,0,0,0,0,0,0,0,0,0
2.540898,7542,32862,37231,0,0,0,0,0,0,0,0,0,0,0,0,0,0
2.541923,7544,32858,37228,0,0,0,0,0,0,0,0,0,0,0,0,0,0
2.558979,7544,32855,37212,0,0,0,0,0,0,0,0,0,0,0,0,0,0
2.561061,7545,32849,37192,0,0,0,0,0,0,0,0,0,0,0,0,0,0
2.578805,7538,32850,37179,0,0,0,0,0,0,0,0,0,0,0,0,0,0
2.580947,7537,32836,37159,0,0,0,0,0,0,0,0,0,0,0,0,0,0
2.600694,7531,32841,37150,0,0,0,0,0,0,0,0,0,0,0,0,0,0
2.604907,7528,32849,37145,0,0,0,0,0,0,0,0,0,0,0,0,0,0
2.61913,7525,32857,37148,0,0,0,0,0,0,0,0,0,0,0,0,0,0
2.62065,7517,32864,37149,0,0,0,0,0,0,0,0,0,0,0,0,0,0
2.640639,7514,32864,37152,0,0,0,0,0,0,0,0,0,0,0,0,0,0
2.642029,7511,32862,37144,0,0,0,0,0,0,0,0,0,0,0,0,0,0
2.658958,7511,32856,37135,0,0,0,0,0,0,0,0,0,0,0,0,0,0
2.661014,7511,32847,37130,0,0,0,0,0,0,0,0,0,0,0,0,0,0
2.680814,7513,32845,37128,0,0,0,0,0,0,0,0,0,0,0,0,0,0
2.681845,7511,32847,37131,0,0,0,0,0,0,0,0,0,0,0,0,0,0
2.699713,7517,32852,37142,0,0,0,0,0,0,0,0,0,0,0,0,0,0
2.700739,7516,32860,37155,0,0,0,0,0,0,0,0,0,0,0,0,0,0
2.71893,7528,32873,37173,0,0,0,0,0,0,0,0,0,0,0,0,0,0
2.720982,7533,32872,37183,0,0,0,0,0,0,0,0,0,0,0,0,0,0
2.738449,7535,32875,37184,0,0,0,0,0,0,0,0,0,0,0,0,0,0
2.740762,7532,32877,37186,0,0,0,0,0,0,0,0,0,0,0,0,0,0
2.759461,7539,32876,37189,0,0,0,0,0,0,0,0,0,0,0,0,0,0
2.7607,7543,32884,37200,0,0,0,0,0,0,0,0,0,0,0,0,0,0
2.780112,7548,32894,37220,0,0,0,0,0,0,0,0,0,0,0,0,0,0
2.78112,7551,32908,37244,0,0,0,0,0,0,0,0,0,0,0,0,0,0
2.799086,7560,32919,37260,0,0,0,0,0,0,0,0,0,0,0,0,0,0
2.800122,7567,32923,37275,0,0,0,0,0,0,0,0,0,0,0,0,0,0
2.809058,7573,32928,37286,0,0,0,0,0,0,0,0,0,0,0,0,0,0
2.829854,7576,32934,37294,0,0,0,0,0,0,0,0,0,0,0,0,0,0
2.830854,7586,32942,37308,0,0,0,0,0,0,0,0,0,0,0,0,0,0
2.84895,7592,32948,37321,0,0,0,0,0,0,0,0,0,0,0,0,0,0
2.850997,7593,32961,37338,0,0,0,0,0,0,0,0,0,0,0,0,0,0
2.869799,7599,32965,37341,0,0,0,0,0,0,0,0,0,0,0,0,0,0
2.871102,7602,32973,37349,0,0,0,0,0,0,0,0,0,0,0,0,0,0
2.890332,7605,32970,37356,0,0,0,0,0,0,0,0,0,0,0,0,0,0
2.891438,7609,32985,37368,0,0,0,0,0,0,0,0,0,0,0,0,0,0
2.909687,7614,32987,37381,0,0,0,0,0,0,0,0,0,0,0,0,0,0
2.910706,7622,32998,37394,0,0,0,0,0,0,0,0,0,0,0,0,0,0
2.929921,7628,33009,37411,0,0,0,0,0,0,0,0,0,0,0,0,0,0
2.930939,7631,33013,37424,0,0,0,0,0,0,0,0,0,0,0,0,0,0
2.9501,7633,33020,37429,0,0,0,0,0,0,0,0,0,0,0,0,0,0
2.951092,7640,33014,37425,0,0,0,0,0,0,0,0,0,0,0,0,0,0
2.970176,7642,33006,37418,0,0,0,0,0,0,0,0,0,0,0,0,0,0
2.971179,7654,32992,37405,0,0,0,0,0,0,0,0,0,0,0,0,0,0
2.989441,7655,32980,37389,0,0,0,0,0,0,0,0,0,0,0,0,0,0
2.990478,7659,32972,37386,0,0,0,0,0,0,0,0,0,0,0,0,0,0
3.01135,7668,32968,37384,0,0,0,0,0,0,0,0,0,0,0,0,0,0
3.013373,7673,32970,37393,0,0,0,0,0,0,0,0,0,0,0,0,0,0
3.031502,7677,32975,37405,0,0,0,0,0,0,0,0,0,0,0,0,0,0
3.032535,7680,32984,37415,0,0,0,0,0,0,0,0,0,0,0,0,0,0
3.050119,7686,32988,37420,0,0,0,0,0,0,0,0,0,0,0,0,0,0
3.05111,7692,32994,37436,0,0,0,0,0,0,0,0,0,0,0,0,0,0
3.068863,7696,33000,37443,0,0,0,0,0,0,0,0,0,0,0,0,0,0
3.070375,7702,33008,37457,0,0,0,0,0,0,0,0,0,0,0,0,0,0
3.08915,7708,33016,37479,0,0,0,0,0,0,0,0,0,0,0,0,0,0
3.090168,7711,33031,37499,0,0,0,0,0,0,0,0,0,0,0,0,0,0
3.110428,7717,33045,37520,0,0,0,0,0,0,0,0,0,0,0,0,0,0
3.111617,7724,33051,37537,0,0,0,0,0,0,0,0,0,0,0,0,0,0
3.129904,7732,33058,37552,0,0,0,0,0,0,0,0,0,0,0,0,0,0
3.130922,7735,33066,37563,0,0,0,0,0,0,0,0,0,0,0,0,0,0
3.139264,7738,33073,37578,0,0,0,0,0,0,0,0,0,0,0,0,0,0
3.16061,7741,33083,37593,0,0,0,0,0,0,0,0,0,0,0,0,0,0
3.161613,7751,33089,37609,0,0,0,0,0,0,0,0,0,0,0,0,0,0
3.179427,7754,33095,37623,0,0,0,0,0,0,0,0,0,0,0,0,0,0
3.181427,7763,33103,37635,0,0,0,0,0,0,0,0,0,0,0,0,0,0
3.200052,7766,33104,37644,0,0,0,0,0,0,0,0,0,0,0,0,0,0
3.201057,7772,33110,37650,0,0,0,0,0,0,0,0,0,0,0,0,0,0
3.221145,7774,33107,37653,0,0,0,0,0,0,0,0,0,0,0,0,0,0
3.222185,7779,33102,37650,0,0,0,0,0,0,0,0,0,0,0,0,0,0
3.239029,7781,33103,37643,0,0,0,0,0,0,0,0,0,0,0,0,0,0
3.241183,7781,33093,37639,0,0,0,0,0,0,0,0,0,0,0,0,0,0
3.25999,7784,33095,37622,0,0,0,0,0,0,0,0,0,0,0,0,0,0
3.261101,7784,33092,37613,0,0,0,0,0,0,0,0,0,0,0,0,0,0
3.279167,7782,33090,37595,0,0,0,0,0,0,0,0,0,0,0,0,0,0
3.28121,7777,33082,37573,0,0,0,0,0,0,0,0,0,0,0,0,0,0
3.299173,7769,33077,37550,0,0,0,0,0,0,0,0,0,0,0,0,0,0
3.300199,7762,33070,37526,0,0,0,0,0,0,0,0,0,0,0,0,0,0
3.321173,7751,33062,37504,0,0,0,0,0,0,0,0,0,0,0,0,0,0
3.322191,7746,33055,37486,0,0,0,0,0,0,0,0,0,0,0,0,0,0
3.339386,7738,33052,37478,0,0,0,0,0,0,0,0,0,0,0,0,0,0
3.340391,7733,33050,37471,0,0,0,0,0,0,0,0,0,0,0,0,0,0
3.358672,7733,33053,37470,0,0,0,0,0,0,0,0,0,0,0,0,0,0
3.360738,7725,33046,37466,0,0,0,0,0,0,0,0,0,0,0,0,0,0
3.370578,7724,33045,37465,0,0,0,0,0,0,0,0,0,0,0,0,0,0
3.38945,7721,33044,37460,0,0,0,0,0,0,0,0,0,0,0,0,0,0
3.390469,7725,33038,37461,0,0,0,0,0,0,0,0,0,0,0,0,0,0
3.409429,7723,33038,37461,0,0,0,0,0,0,0,0,0,0,0,0,0,0
3.410434,7722,33034,37462,0,0,0,0,0,0,0,0,0,0,0,0,0,0
3.429537,7722,33035,37458,0,0,0,0,0,0,0,0,0,0,0,0,0,0
3.430542,7720,33029,37459,0,0,0,0,0,0,0,0,0,0,0,0,0,0
3.439878,7722,33032,37458,0,0,0,0,0,0,0,0,0,0,0,0,0,0
3.45885,7722,33029,37468,0,0,0,0,0,0,0,0,0,0,0,0,0,0
3.46085,7728,33034,37470,0,0,0,0,0,0,0,0,0,0,0,0,0,0
3.47985,7731,33031,37479,0,0,0,0,0,0,0,0,0,0,0,0,0,0
3.48085,7732,33032,37475,0,0,0,0,0,0,0,0,0,0,0,0,0,0
3.499699,7736,33033,37485,0,0,0,0,0,0,0,0,0,0,0,0,0,0
3.500969,7738,33040,37491,0,0,0,0,0,0,0,0,0,0,0,0,0,0
3.519669,7738,33035,37498,0,0,0,0,0,0,0,0,0,0,0,0,0,0
3.520796,7740,33040,37501,0,0,0,0,0,0,0,0,0,0,0,0,0,0
3.539111,7745,33041,37510,0,0,0,0,0,0,0,0,0,0,0,0,0,0
3.540134,7750,33048,37514,0,0,0,0,0,0,0,0,0,0,0,0,0,0
3.559375,7751,33049,37517,0,0,0,0,0,0,0,0,0,0,0,0,0,0
3.560375,7754,33047,37517,0,0,0,0,0,0,0,0,0,0,0,0,0,0
3.579672,7757,33042,37518,0,0,0,0,0,0,0,0,0,0,0,0,0,0
3.5811,7757,33042,37513,0,0,0,0,0,0,0,0,0,0,0,0,0,0
3.59128,7760,33045,37518,0,0,0,0,0,0,0,0,0,0,0,0,0,0
3.608993,7760,33047,37518,0,0,0,0,0,0,0,0,0,0,0,0,0,0
3.611042,7763,33049,37524,0,0,0,0,0,0,0,0,0,0,0,0,0,0
3.629573,7763,33045,37529,0,0,0,0,0,0,0,0,0,0,0,0,0,0
3.631733,7765,33050,37530,0,0,0,0,0,0,0,0,0,0,0,0,0,0
3.648622,7772,33050,37532,0,0,0,0,0,0,0,0,0,0,0,0,0,0
3.650633,7773,33050,37534,0,0,0,0,0,0,0,0,0,0,0,0,0,0
3.669859,7774,33052,37537,0,0,0,0,0,0,0,0,0,0,0,0,0,0
3.671359,7777,33049,37542,0,0,0,0,0,0,0,0,0,0,0,0,0,0
3.690021,7785,33047,37544,0,0,0,0,0,0,0,0,0,0,0,0,0,0
3.691021,7785,33048,37546,0,0,0,0,0,0,0,0,0,0,0,0,0,0
3.710623,7789,33048,37547,0,0,0,0,0,0,0,0,0,0,0,0,0,0
3.711646,7790,33048,37548,0,0,0,0,0,0,0,0,0,0,0,0,0,0
3.729299,7799,33042,37560,0,0,0,0,0,0,0,0,0,0,0,0,0,0
3.73046,7796,33048,37557,0,0,0,0,0,0,0,0,0,0,0,0,0,0
3.750627,7806,33044,37569,0,0,0,0,0,0,0,0,0,0,0,0,0,0
3.751841,7807,33050,37576,0,0,0,0,0,0,0,0,0,0,0,0,0,0
3.768926,7813,33047,37583,0,0,0,0,0,0,0,0,0,0,0,0,0,0
3.770948,7816,33053,37590,0,0,0,0,0,0,0,0,0,0,0,0,0,0
3.791328,7824,33051,37591,0,0,0,0,0,0,0,0,0,0,0,0,0,0
3.793345,7825,33054,37594,0,0,0,0,0,0,0,0,0,0,0,0,0,0
3.809982,7829,33055,37604,0,0,0,0,0,0,0,0,0,0,0,0,0,0
3.811014,7831,33056,37603,0,0,0,0,0,0,0,0,0,0,0,0,0,0
3.820394,7839,33056,37606,0,0,0,0,0,0,0,0,0,0,0,0,0,0
3.839491,7843,33051,37609,0,0,0,0,0,0,0,0,0,0,0,0,0,0
3.840491,7842,33051,37609,0,0,0,0,0,0,0,0,0,0,0,0,0,0
3.858409,7848,33054,37614,0,0,0,0,0,0,0,0,0,0,0,0,0,0
3.860745,7852,33061,37623,0,0,0,0,0,0,0,0,0,0,0,0,0,0
3.879199,7855,33059,37631,0,0,0,0,0,0,0,0,0,0,0,0,0,0
3.88025,7859,33062,37638,0,0,0,0,0,0,0,0,0,0,0,0,0,0
3.899469,7864,33064,37646,0,0,0,0,0,0,0,0,0,0,0,0,0,0
3.900584,7867,33066,37652,0,0,0,0,0,0,0,0,0,0,0,0,0,0
3.921485,7872,33068,37657,0,0,0,0,0,0,0,0,0,0,0,0,0,0
3.92251,7877,33066,37657,0,0,0,0,0,0,0,0,0,0,0,0,0,0
3.939839,7880,33064,37650,0,0,0,0,0,0,0,0,0,0,0,0,0,0
3.940839,7875,33058,37638,0,0,0,0,0,0,0,0,0,0,0,0,0,0
3.960518,7882,33052,37629,0,0,0,0,0,0,0,0,0,0,0,0,0,0
3.961517,7872,33047,37611,0,0,0,0,0,0,0,0,0,0,0,0,0,0
3.968664,7873,33043,37596,0,0,0,0,0,0,0,0,0,0,0,0,0,0
3.990054,7863,33037,37578,0,0,0,0,0,0,0,0,0,0,0,0,0,0
3.991174,7859,33034,37562,0,0,0,0,0,0,0,0,0,0,0,0,0,0
4.011347,7849,33030,37546,0,0,0,0,0,0,0,0,0,0,0,0,0,0
4.012365,7841,33025,37528,0,0,0,0,0,0,0,0,0,0,0,0,0,0
4.030357,7830,33024,37519,0,0,0,0,0,0,0,0,0,0,0,0,0,0
4.031402,7820,33020,37508,0,0,0,0,0,0,0,0,0,0,0,0,0,0
4.049768,7812,33024,37504,0,0,0,0,0,0,0,0,0,0,0,0,0,0
4.050797,7799,33018,37498,0,0,0,0,0,0,0,0,0,0,0,0,0,0
4.069788,7794,33016,37495,0,0,0,0,0,0,0,0,0,0,0,0,0,0
4.071297,7786,33016,37495,0,0,0,0,0,0,0,0,0,0,0,0,0,0
4.089218,7780,33018,37494,0,0,0,0,0,0,0,0,0,0,0,0,0,0
4.09052,7779,33019,37498,0,0,0,0,0,0,0,0,0,0,0,0,0,0
4.110901,7773,33023,37505,0,0,0,0,0,0,0,0,0,0,0,0,0,0
4.112076,7773,33020,37510,0,0,0,0,0,0,0,0,0,0,0,0,0,0
4.120301,7773,33024,37512,0,0,0,0,0,0,0,0,0,0,0,0,0,0
4.141162,7772,33024,37512,0,0,0,0,0,0,0,0,0,0,0,0,0,0
4.143181,7767,33021,37510,0,0,0,0,0,0,0,0,0,0,0,0,0,0
4.160382,7763,33018,37512,0,0,0,0,0,0,0,0,0,0,0,0,0,0
4.161497,7766,33016,37508,0,0,0,0,0,0,0,0,0,0,0,0,0,0
4.179018,7767,33019,37518,0,0,0,0,0,0,0,0,0,0,0,0,0,0
4.182017,7767,33018,37524,0,0,0,0,0,0,0,0,0,0,0,0,0,0
4.199326,7769,33023,37538,0,0,0,0,0,0,0,0,0,0,0,0,0,0
4.200348,7774,33026,37546,0,0,0,0,0,0,0,0,0,0,0,0,0,0
4.219975,7778,33029,37551,0,0,0,0,0,0,0,0,0,0,0,0,0,0
4.221,7780,33025,37549,0,0,0,0,0,0,0,0,0,0,0,0,0,0
4.239466,7780,33023,37553,0,0,0,0,0,0,0,0,0,0,0,0,0,0
4.240487,7785,33017,37547,0,0,0,0,0,0,0,0,0,0,0,0,0,0
4.259775,7785,33012,37543,0,0,0,0,0,0,0,0,0,0,0,0,0,0
4.26078,7787,33013,37547,0,0,0,0,0,0,0,0,0,0,0,0,0,0
4.279151,7787,33012,37549,0,0,0,0,0,0,0,0,0,0,0,0,0,0
4.280151,7790,33013,37549,0,0,0,0,0,0,0,0,0,0,0,0,0,0
4.299865,7787,33015,37548,0,0,0,0,0,0,0,0,0,0,0,0,0,0
4.300871,7789,33011,37553,0,0,0,0,0,0,0,0,0,0,0,0,0,0
4.319457,7791,33013,37550,0,0,0,0,0,0,0,0,0,0,0,0,0,0
4.320837,7793,33011,37553,0,0,0,0,0,0,0,0,0,0,0,0,0,0
4.339794,7795,33013,37555,0,0,0,0,0,0,0,0,0,0,0,0,0,0
4.340826,7798,33019,37562,0,0,0,0,0,0,0,0,0,0,0,0,0,0
4.350561,7793,33018,37567,0,0,0,0,0,0,0,0,0,0,0,0,0,0
4.369396,7798,33020,37568,0,0,0,0,0,0,0,0,0,0,0,0,0,0
4.370422,7801,33017,37571,0,0,0,0,0,0,0,0,0,0,0,0,0,0
4.3907,7798,33017,37572,0,0,0,0,0,0,0,0,0,0,0,0,0,0
4.391717,7803,33021,37575,0,0,0,0,0,0,0,0,0,0,0,0,0,0
4.410766,7806,33020,37580,0,0,0,0,0,0,0,0,0,0,0,0,0,0
4.411918,7808,33023,37585,0,0,0,0,0,0,0,0,0,0,0,0,0,0
4.421271,7814,33027,37599,0,0,0,0,0,0,0,0,0,0,0,0,0,0
4.441079,7818,33030,37604,0,0,0,0,0,0,0,0,0,0,0,0,0,0
4.442188,7821,33034,37617,0,0,0,0,0,0,0,0,0,0,0,0,0,0
4.461217,7827,33045,37629,0,0,0,0,0,0,0,0,0,0,0,0,0,0
4.462223,7828,33044,37640,0,0,0,0,0,0,0,0,0,0,0,0,0,0
4.479229,7834,33045,37640,0,0,0,0,0,0,0,0,0,0,0,0,0,0
4.480229,7838,33042,37644,0,0,0,0,0,0,0,0,0,0,0,0,0,0
4.498738,7842,33043,37646,0,0,0,0,0,0,0,0,0,0,0,0,0,0
4.500762,7842,33047,37657,0,0,0,0,0,0,0,0,0,0,0,0,0,0
4.519573,7847,33055,37668,0,0,0,0,0,0,0,0,0,0,0,0,0,0
4.520955,7850,33066,37684,0,0,0,0,0,0,0,0,0,0,0,0,0,0
4.539428,7855,33068,37697,0,0,0,0,0,0,0,0,0,0,0,0,0,0
4.540457,7860,33069,37701,0,0,0,0,0,0,0,0,0,0,0,0,0,0
4.558606,7863,33067,37700,0,0,0,0,0,0,0,0,0,0,0,0,0,0
4.560634,7864,33058,37690,0,0,0,0,0,0,0,0,0,0,0,0,0,0
4.569193,7869,33051,37682,0,0,0,0,0,0,0,0,0,0,0,0,0,0
4.589322,7867,33051,37677,0,0,0,0,0,0,0,0,0,0,0,0,0,0
4.590345,7868,33050,37682,0,0,0,0,0,0,0,0,0,0,0,0,0,0
4.609581,7869,33052,37684,0,0,0,0,0,0,0,0,0,0,0,0,0,0
4.610601,7872,33060,37699,0,0,0,0,0,0,0,0,0,0,0,0,0,0
4.62978,7876,33062,37705,0,0,0,0,0,0,0,0,0,0,0,0,0,0
4.630786,7881,33065,37712,0,0,0,0,0,0,0,0,0,0,0,0,0,0
4.649817,7883,33066,37707,0,0,0,0,0,0,0,0,0,0,0,0,0,0
4.650817,7887,33060,37710,0,0,0,0,0,0,0,0,0,0,0,0,0,0
4.668912,7888,33061,37711,0,0,0,0,0,0,0,0,0,0,0,0,0,0
4.670934,7890,33056,37710,0,0,0,0,0,0,0,0,0,0,0,0,0,0
4.689339,7890,33059,37708,0,0,0,0,0,0,0,0,0,0,0,0,0,0
4.690368,7892,33053,37698,0,0,0,0,0,0,0,0,0,0,0,0,0,0
4.709969,7888,33048,37682,0,0,0,0,0,0,0,0,0,0,0,0,0,0
4.710969,7883,33044,37661,0,0,0,0,0,0,0,0,0,0,0,0,0,0
4.7298,7874,33033,37636,0,0,0,0,0,0,0,0,0,0,0,0,0,0
4.730792,7865,33026,37612,0,0,0,0,0,0,0,0,0,0,0,0,0,0
4.749421,7852,33010,37586,0,0,0,0,0,0,0,0,0,0,0,0,0,0
4.750765,7841,33010,37568,0,0,0,0,0,0,0,0,0,0,0,0,0,0
4.768646,7823,33003,37538,0,0,0,0,0,0,0,0,0,0,0,0,0,0
4.770698,7810,33001,37535,0,0,0,0,0,0,0,0,0,0,0,0,0,0
4.789668,7793,33001,37530,0,0,0,0,0,0,0,0,0,0,0,0,0,0
4.790686,7778,33002,37527,0,0,0,0,0,0,0,0,0,0,0,0,0,0
4.798546,7765,33003,37523,0,0,0,0,0,0,0,0,0,0,0,0,0,0
4.821041,7753,32999,37522,0,0,0,0,0,0,0,0,0,0,0,0,0,0
4.822146,7746,32995,37517,0,0,0,0,0,0,0,0,0,0,0,0,0,0
4.840212,7739,32997,37518,0,0,0,0,0,0,0,0,0,0,0,0,0,0
4.841212,7733,32986,37516,0,0,0,0,0,0,0,0,0,0,0,0,0,0
4.858757,7722,32984,37505,0,0,0,0,0,0,0,0,0,0,0,0,0,0
4.861002,7720,32982,37503,0,0,0,0,0,0,0,0,0,0,0,0,0,0
4.880714,7712,32982,37505,0,0,0,0,0,0,0,0,0,0,0,0,0,0
4.881714,7707,32977,37507,0,0,0,0,0,0,0,0,0,0,0,0,0,0
4.899551,7702,32981,37510,0,0,0,0,0,0,0,0,0,0,0,0,0,0
4.90057,7703,32978,37513,0,0,0,0,0,0,0,0,0,0,0,0,0,0
4.921069,7701,32982,37521,0,0,0,0,0,0,0,0,0,0,0,0,0,0
4.92207,7700,32980,37525,0,0,0,0,0,0,0,0,0,0,0,0,0,0
4.940578,7700,32984,37528,0,0,0,0,0,0,0,0,0,0,0,0,0,0
4.941577,7702,32988,37536,0,0,0,0,0,0,0,0,0,0,0,0,0,0
4.959703,7701,32990,37545,0,0,0,0,0,0,0,0,0,0,0,0,0,0
4.960723,7696,32989,37546,0,0,0,0,0,0,0,0,0,0,0,0,0,0
4.980452,7705,32994,37555,0,0,0,0,0,0,0,0,0,0,0,0,0,0
4.981452,7705,32993,37562,0,0,0,0,0,0,0,0,0,0,0,0,0,0
